,timestamp,accel_x,accel_y,accel_z,gyro_roll,gyro_pitch,gyro_yaw,label
0,1549653321089461,0.0517081543803215,0.0543818324804306,0.7490020394325256,0.00022493861615657806,0.00021865405142307281,-0.0003485679626464844,0
1,1549653321139461,0.05285722389817238,0.0543818324804306,0.7488265037536621,0.00022482685744762418,0.0002185441553592682,-0.00034839287400245667,0
2,1549653321189461,0.053431760519742966,0.05732139199972153,0.7502307891845703,0.00022471509873867035,-0.0003134123980998993,0.0001836288720369339,0
3,1549653321239461,0.05228269100189209,0.05585161224007607,0.7486509680747986,-0.00030724331736564636,0.00021859072148799896,0.0007153842598199843,0
4,1549653321289461,0.05228269100189209,0.05732139199972153,0.7488265037536621,-0.00030709058046340937,0.00021848082542419442,-0.0003486666828393936,0
5,1549653321339461,0.05285722389817238,0.05732139199972153,0.7490020394325256,0.0002249106764793396,0.0002183709293603897,0.00018335506319999687,0
6,1549653321389461,0.05228269100189209,0.05879117175936699,0.7493531107902527,-0.00030704960227012634,-0.00031358562409877777,0.0007151104509830475,0
7,1549653321439461,0.0517081543803215,0.06026095151901245,0.7497041821479797,-0.0003068968653678893,0.00021841749548912048,-0.00034894049167633057,0
8,1549653321489461,0.053431760519742966,0.05732139199972153,0.7498797178268433,0.00022510439157485962,0.00021830759942531586,-0.00034876540303230286,0
9,1549653321539461,0.05285722389817238,0.05879117175936699,0.7507573962211609,-0.0003068558871746063,0.00021819770336151123,-0.00034859031438827515,0
10,1549653321589461,0.0517081543803215,0.05585161224007607,0.7493531107902527,-0.0003067031502723694,0.0002180878072977066,-0.0008802618831396102,0
11,1549653321639461,0.05285722389817238,0.05585161224007607,0.7497041821479797,0.0002252962440252304,0.000217977911233902,-0.00034797750413417816,0
12,1549653321689461,0.05285722389817238,0.05732139199972153,0.7495286464691162,0.00022518448531627647,0.0002178680151700973,-0.0003478042781352997,0
13,1549653321739461,0.05228269100189209,0.0543818324804306,0.7491775751113892,0.0002250727266073227,-0.00031408853828907013,-0.0003476310521364212,0
14,1549653321789461,0.05228269100189209,0.052912052720785134,0.7498797178268433,-0.00030688755214214325,0.00021791458129882807,0.00018438883125782013,0
15,1549653321839461,0.05228269100189209,0.0543818324804306,0.7491775751113892,0.00022511370480060577,0.0002178065478801728,0.0001842975616455078,0
16,1549653321889461,0.05285722389817238,0.052912052720785134,0.7498797178268433,0.00022500194609165192,0.0002176985144615173,0.0001842062920331955,0
17,1549653321939461,0.05113362148404122,0.05732139199972153,0.7504063248634338,0.00022489018738269809,-0.00031425803899765015,-0.00034773349761962885,0
18,1549653321989461,0.0517081543803215,0.05585161224007607,0.7500552535057068,-0.0008389167487621307,-0.00031410157680511475,0.00018428824841976166,0
19,1549653322039461,0.05113362148404122,0.0543818324804306,0.7497041821479797,-0.00030665099620819086,-0.0003139451146125793,0.0007160436362028122,0
20,1549653322089461,0.05228269100189209,0.0543818324804306,0.7502307891845703,0.000757196918129921,0.0002180580049753189,0.000183839350938797,0
21,1549653322139461,0.05285722389817238,0.05732139199972153,0.7498797178268433,0.0007568188011646273,-0.00031389854848384857,0.00018374808132648468,0
22,1549653322189461,0.05113362148404122,0.052912052720785134,0.7498797178268433,0.00022459402680397042,0.00021810457110404968,0.00018365681171417242,0
23,1549653322239461,0.05228269100189209,0.05732139199972153,0.7493531107902527,0.0002244822680950165,0.00021799467504024506,0.0007154121994972229,0
24,1549653322289461,0.053431760519742966,0.0543818324804306,0.7488265037536621,-0.00030747614800930023,-0.0003139618784189224,0.0001832079142332077,0
25,1549653322339461,0.05285722389817238,0.052912052720785134,0.7495286464691162,-0.00030732154846191406,0.00021804124116897583,-0.00034873001277446747,0
26,1549653322389461,0.053431760519742966,0.0543818324804306,0.7504063248634338,-0.0003071688115596771,0.0002179313451051712,0.0001832917332649231,0
27,1549653322439461,0.05228269100189209,0.052912052720785134,0.7504063248634338,-0.0003070160746574402,0.00021782144904136652,0.00018320046365261078,0
28,1549653322489461,0.0517081543803215,0.052912052720785134,0.7500552535057068,0.00022498518228530884,0.00021771341562271118,-0.00034873746335506434,0
29,1549653322539461,0.05285722389817238,0.0543818324804306,0.7505818605422974,0.0007567200809717177,0.00021760538220405576,-0.0003485623747110367,0
30,1549653322589461,0.0517081543803215,0.05732139199972153,0.7493531107902527,0.0002244953066110611,-0.0003143511712551117,-0.00034838728606700897,0
31,1549653322639461,0.05285722389817238,0.05144227296113968,0.7490020394325256,0.00022438354790210724,0.00021765381097793585,0.0001836344599723816,0
32,1549653322689461,0.0517081543803215,0.0543818324804306,0.7498797178268433,0.00022427178919315338,-0.0003143027424812317,0.00018354319036006927,0
33,1549653322739461,0.05285722389817238,0.05879117175936699,0.7502307891845703,0.0007560066878795624,-0.0003141462802886963,0.00018345192074775696,0
34,1549653322789461,0.0517081543803215,0.05732139199972153,0.7502307891845703,0.00022378191351890567,0.000217856839299202,0.00018336065113544464,0
35,1549653322839461,0.05113362148404122,0.05879117175936699,0.7507573962211609,0.00022367015480995176,0.00021774880588054657,0.00018326938152313232,0
36,1549653322889461,0.05228269100189209,0.06026095151901245,0.7502307891845703,0.0002235583961009979,0.00021764077246189117,0.00018317811191082,0
37,1549653322939461,0.053431760519742966,0.05585161224007607,0.7502307891845703,0.0002234466373920441,0.00021753273904323578,-0.00034875981509685516,0
38,1549653322989461,0.05285722389817238,0.05585161224007607,0.7502307891845703,0.00022333487868309013,-0.0003144238144159317,0.0001832619309425354,0
39,1549653323039461,0.054580830037593835,0.05879117175936699,0.7498797178268433,-0.0003086235374212265,0.00021758116781711578,0.0007150173187255857,0
40,1549653323089461,0.05228269100189209,0.05585161224007607,0.7500552535057068,0.00022337771952152247,0.0002174731343984604,0.00018281303346157074,0
41,1549653323139461,0.05285722389817238,0.05879117175936699,0.7497041821479797,0.00022326596081256866,-0.0003144834190607072,0.0001827217638492584,0
42,1549653323189461,0.0517081543803215,0.05732139199972153,0.7500552535057068,0.0002231542021036148,-0.0003143269568681717,-0.00034921616315841675,0
43,1549653323239461,0.05285722389817238,0.05732139199972153,0.7493531107902527,-0.0008406508713960648,0.0002176780253648758,0.00018280558288097382,0
44,1549653323289461,0.053431760519742966,0.052912052720785134,0.7500552535057068,-0.0003083832561969757,0.0002175699919462204,-0.0003491323441267013,0
45,1549653323339461,0.05285722389817238,0.05144227296113968,0.7497041821479797,0.0002236180007457733,0.000217461958527565,0.0001828894019126892,0
46,1549653323389461,0.05285722389817238,0.0543818324804306,0.7505818605422974,0.00022350624203681943,0.0002173539251089096,0.0001827981323003769,0
47,1549653323439461,0.053431760519742966,0.05732139199972153,0.7502307891845703,-0.00030845217406749714,0.0002172458916902542,0.00018270686268806452,0
48,1549653323489461,0.05400629341602325,0.0543818324804306,0.7498797178268433,0.00022354908287525177,0.00021713785827159882,0.00018261559307575226,0
49,1549653323539461,0.05228269100189209,0.05732139199972153,0.7504063248634338,0.0007552839815616608,0.00021702982485294342,0.00018252432346344,0
50,1549653323589461,0.05400629341602325,0.052912052720785134,0.7498797178268433,0.0002230592072010041,0.000216921791434288,-0.00034941360354423523,0
51,1549653323639461,0.05285722389817238,0.05732139199972153,0.7498797178268433,0.0002229474484920501,0.00021681375801563263,0.00018260814249515533,0
52,1549653323689461,0.053431760519742966,0.05732139199972153,0.7498797178268433,0.00022283568978309629,0.00021670572459697723,0.00018251687288284304,0
53,1549653323739461,0.054580830037593835,0.06026095151901245,0.7498797178268433,0.00022272393107414248,0.00021659769117832184,0.0001824256032705307,0
54,1549653323789461,0.05285722389817238,0.05732139199972153,0.7502307891845703,0.00022261217236518857,0.00021648965775966644,0.0001823343336582184,0
55,1549653323839461,0.053431760519742966,0.0543818324804306,0.7498797178268433,0.00022250041365623482,-0.0003154650330543518,0.00018224306404590607,0
56,1549653323889461,0.05285722389817238,0.05585161224007607,0.7504063248634338,0.00022238865494728086,-0.0003153067082166672,0.00018215179443359367,0
57,1549653323939461,0.05228269100189209,0.05585161224007607,0.7507573962211609,0.00022227689623832705,0.0002166982740163803,-0.0003497861325740814,0
58,1549653323989461,0.05113362148404122,0.06026095151901245,0.7502307891845703,-0.0003096815198659897,-0.00031525641679763794,-0.0003496110439300537,0
59,1549653324039461,0.04998454824090004,0.05732139199972153,0.7500552535057068,-0.0003095269203186035,-0.0003150980919599533,-0.000349435955286026,0
60,1549653324089461,0.05228269100189209,0.05732139199972153,0.7498797178268433,-0.00030937232077121735,0.00021690689027309418,0.00018258579075336456,0
61,1549653324139461,0.05285722389817238,0.05879117175936699,0.7497041821479797,-0.0003092177212238312,0.00021679885685443878,0.00018249452114105225,0
62,1549653324189461,0.053431760519742966,0.05585161224007607,0.7500552535057068,-0.000309063121676445,0.00021669082343578336,-0.0003494434058666229,0
63,1549653324239461,0.05228269100189209,0.06173073127865791,0.7502307891845703,0.0007547847926616669,-0.00031526386737823486,0.00018257834017276764,0
64,1549653324289461,0.05285722389817238,0.05732139199972153,0.7495286464691162,0.0002225600183010101,0.00021674111485481265,0.00018248707056045527,0
65,1549653324339461,0.053431760519742966,0.05585161224007607,0.7495286464691162,0.0007542949169874191,0.00021663308143615725,0.000182395800948143,0
66,1549653324389461,0.05228269100189209,0.05585161224007607,0.7498797178268433,-0.00030977651476860046,0.00021652504801750183,0.0001823045313358307,0
67,1549653324439461,0.053431760519742966,0.05585161224007607,0.7504063248634338,-0.0003096219152212143,-0.0003154296427965164,0.0001822132617235184,0
68,1549653324489461,0.05285722389817238,0.05732139199972153,0.7500552535057068,-0.0003094673156738281,0.00021657533943653107,-0.00034972466528415685,0
69,1549653324539461,0.053431760519742966,0.05732139199972153,0.7498797178268433,0.0002225339412689209,0.00021646730601787567,-0.0008813943713903428,0
70,1549653324589461,0.0517081543803215,0.05879117175936699,0.7498797178268433,0.0007542688399553299,-0.00031548738479614263,-0.00034910812973976135,0
71,1549653324639461,0.05228269100189209,0.06026095151901245,0.7495286464691162,0.0007538925856351852,-0.00031532905995845795,0.0001829136162996292,0
72,1549653324689461,0.05285722389817238,0.05585161224007607,0.7502307891845703,-0.00031017884612083435,0.00021667592227458954,0.0001828223466873169,0
73,1549653324739461,0.05285722389817238,0.05585161224007607,0.7500552535057068,-0.000841870903968811,0.00021656788885593414,-0.0003491155803203583,0
74,1549653324789461,0.05285722389817238,0.052912052720785134,0.7493531107902527,0.00022224336862564087,0.00021645985543727875,-0.00034894049167633057,0
75,1549653324839461,0.0517081543803215,0.05879117175936699,0.7500552535057068,-0.00030971504747867584,-0.0003154948353767395,0.00018308125436306,0
76,1549653324889461,0.053431760519742966,0.05879117175936699,0.7490020394325256,0.00022228620946407318,-0.00031533651053905487,0.00018298998475074768,0
77,1549653324939461,0.053431760519742966,0.052912052720785134,0.7500552535057068,-0.00030967220664024353,0.00021666847169399261,0.00018289871513843536,0
78,1549653324989461,0.053431760519742966,0.052912052720785134,0.7500552535057068,-0.00030951760709285736,0.00021656043827533722,0.00018280744552612305,0
79,1549653325039461,0.053431760519742966,0.05585161224007607,0.7498797178268433,0.0002224836498498917,0.00021645240485668182,0.00018271617591381078,0
80,1549653325089461,0.05228269100189209,0.05879117175936699,0.7498797178268433,-0.00030947476625442505,0.00021634437143802643,0.0001826249063014984,0
81,1549653325139461,0.05228269100189209,0.05585161224007607,0.7497041821479797,-0.0003093201667070389,0.00021623633801937103,0.0007143802940845492,0
82,1549653325189461,0.05228269100189209,0.05732139199972153,0.7497041821479797,-0.0003091655671596527,-0.0003157183527946472,-0.0003496706485748291,0
83,1549653325239461,0.053431760519742966,0.05585161224007607,0.7497041821479797,0.00022283568978309629,0.00021628662943840027,-0.0003494955599308014,0
84,1549653325289461,0.05285722389817238,0.0543818324804306,0.7495286464691162,0.00022272393107414248,0.00021617859601974487,0.00018252618610858917,0
85,1549653325339461,0.05285722389817238,0.05732139199972153,0.7498797178268433,0.00022261217236518857,0.00021607056260108948,0.0007142815738916397,0
86,1549653325389461,0.05285722389817238,0.052912052720785134,0.7497041821479797,0.00022250041365623482,0.00021596252918243408,0.0007139239460229874,0
87,1549653325439461,0.05228269100189209,0.0543818324804306,0.7502307891845703,0.0007542353123426437,0.0002158544957637787,0.00018171966075897217,0
88,1549653325489461,0.0517081543803215,0.05585161224007607,0.7493531107902527,0.0007538590580224991,0.0002157464623451233,0.00018162839114665985,0
89,1549653325539461,0.05285722389817238,0.05585161224007607,0.7495286464691162,0.00022163428366184237,0.0002156384289264679,0.00018153712153434762,0
90,1549653325589461,0.054580830037593835,0.05585161224007607,0.7488265037536621,0.0002215243875980377,0.0002155303955078125,0.00018144585192203522,0
91,1549653325639461,0.05285722389817238,0.05144227296113968,0.7498797178268433,-0.000310434028506279,-0.00031642429530620564,-0.00035049207508563995,0
92,1549653325689461,0.05285722389817238,0.052912052720785134,0.7497041821479797,-0.0003102794289588928,-0.0003162659704685211,-0.00035031698644161224,0
93,1549653325739461,0.053431760519742966,0.05732139199972153,0.7488265037536621,0.0002217218279838562,0.00021573901176452642,0.00018170475959777832,0
94,1549653325789461,0.053431760519742966,0.0543818324804306,0.7498797178268433,0.00022161006927490234,0.00021563097834587097,-0.00035023316740989685,0
95,1549653325839461,0.05228269100189209,0.05585161224007607,0.7502307891845703,0.00022150017321109766,-0.00031632371246814733,0.00018178857862949369,0
96,1549653325889461,0.05228269100189209,0.05585161224007607,0.7500552535057068,0.00022139027714729312,-0.00031616538763046265,-0.00035014934837818146,0
97,1549653325939461,0.05285722389817238,0.05144227296113968,0.7498797178268433,-0.0003105681389570236,-0.00031600706279277796,0.00018187239766120908,0
98,1549653325989461,0.053431760519742966,0.05585161224007607,0.7500552535057068,0.0007532816380262375,-0.0003158487379550934,0.0007136277854442596,0
99,1549653326039461,0.054580830037593835,0.0543818324804306,0.7493531107902527,0.0007529053837060927,-0.00031569041311740875,-0.00035042315721511835,0
100,1549653326089461,0.05285722389817238,0.05732139199972153,0.7498797178268433,0.0007525291293859483,-0.0003155320882797241,0.00018159858882427216,0
101,1549653326139461,0.05228269100189209,0.052912052720785134,0.7495286464691162,0.00022030621767044067,-0.0003153737634420395,0.00018150731921195984,0
102,1549653326189461,0.05228269100189209,0.05732139199972153,0.7502307891845703,0.00022019632160663605,0.000216631218791008,-0.00035043060779571533,0
103,1549653326239461,0.05400629341602325,0.05585161224007607,0.7500552535057068,-0.00031176023185253143,-0.00031532347202301025,-0.0003502555191516876,0
104,1549653326289461,0.05228269100189209,0.05585161224007607,0.7505818605422974,0.0002202428877353668,0.00021668151021003723,-0.00035008043050765986,0
105,1549653326339461,0.053431760519742966,0.0543818324804306,0.7493531107902527,0.0002201329916715622,0.0007484201341867447,0.00018194131553173065,0
106,1549653326389461,0.053431760519742966,0.05585161224007607,0.7493531107902527,0.00022002309560775762,0.00021619908511638641,0.00018185004591941842,0
107,1549653326439461,0.05285722389817238,0.05732139199972153,0.7493531107902527,0.00021991319954395294,-0.00031575560569763184,-0.00035008788108825684,0
108,1549653326489461,0.05285722389817238,0.05585161224007607,0.7497041821479797,-0.0003120433539152145,-0.00031559728085994715,-0.0003499127924442291,0
109,1549653326539461,0.0517081543803215,0.05144227296113968,0.7493531107902527,0.0002199597656726837,-0.00031543895602226263,0.00018210895359516144,0
110,1549653326589461,0.05055908486247064,0.05144227296113968,0.7498797178268433,0.0002198498696088791,-0.000315280631184578,0.00018201768398284912,0
111,1549653326639461,0.05113362148404122,0.05585161224007607,0.7498797178268433,-0.0003121066838502884,-0.0003151223063468933,0.0001819264143705368,0
112,1549653326689461,0.0517081543803215,0.05732139199972153,0.7495286464691162,0.00021989643573760984,-0.0003149639815092087,0.0001818351447582245,0
113,1549653326739461,0.0517081543803215,0.0543818324804306,0.7504063248634338,0.00021978653967380524,-0.00031480565667152405,0.00018174387514591217,0
114,1549653326789461,0.05515536665916443,0.0543818324804306,0.7495286464691162,-0.00031217001378536224,-0.00031464733183383936,0.00018165260553359983,0
115,1549653326839461,0.05400629341602325,0.05585161224007607,0.7497041821479797,-0.00031201355159282684,-0.000314490869641304,0.0007134079933166504,0
116,1549653326889461,0.053431760519742966,0.05732139199972153,0.7491775751113892,0.00021998956799507133,0.00021751411259174347,0.000713050365447998,0
117,1549653326939461,0.05285722389817238,0.06026095151901245,0.7490020394325256,0.00021987967193126678,-0.000314442440867424,0.0007126946002244949,0
118,1549653326989461,0.05400629341602325,0.06026095151901245,0.7488265037536621,-0.0003120768815279007,-0.0008461326360702515,0.00018049217760562897,0
119,1549653327039461,0.05285722389817238,0.0543818324804306,0.7500552535057068,0.0002199262380599976,-0.0003138631582260132,0.00018040277063846588,0
120,1549653327089461,0.05400629341602325,0.052912052720785134,0.7498797178268433,0.00021981634199619293,-0.00031370669603347784,0.0001803133636713028,0
121,1549653327139461,0.05400629341602325,0.05585161224007607,0.7490020394325256,0.0002197064459323883,-0.0003135502338409424,0.0001802239567041397,0
122,1549653327189461,0.053431760519742966,0.05732139199972153,0.7500552535057068,0.00021959654986858368,-0.000313393771648407,0.00018013454973697662,0
123,1549653327239461,0.05228269100189209,0.05144227296113968,0.7497041821479797,-0.0003123600035905838,0.00021860934793949127,0.00018004514276981354,0
124,1549653327289461,0.05400629341602325,0.05585161224007607,0.7500552535057068,-0.0003122035413980484,0.00021849945187568665,0.00017995573580265045,0
125,1549653327339461,0.054580830037593835,0.0543818324804306,0.7498797178268433,-0.000312047079205513,0.00021838955581188202,0.00017986632883548737,0
126,1549653327389461,0.05400629341602325,0.052912052720785134,0.7493531107902527,-0.00031189061701297765,0.00021827965974807745,0.00017977692186832428,0
127,1549653327439461,0.05400629341602325,0.052912052720785134,0.7495286464691162,-0.0003117341548204422,-0.00031367689371109014,-0.00035215914249420166,0
128,1549653327489461,0.05285722389817238,0.05732139199972153,0.7500552535057068,0.00022026896476745605,-0.0008453670889139174,0.00017986446619033808,0
129,1549653327539461,0.05400629341602325,0.052912052720785134,0.7495286464691162,-0.00031168758869171137,-0.0003130976110696793,0.00017977505922317505,0
130,1549653327589461,0.05285722389817238,0.05585161224007607,0.7493531107902527,0.00022031553089618683,-0.00031294114887714386,-0.0003521610051393509,0
131,1549653327639461,0.05285722389817238,0.05732139199972153,0.7498797178268433,0.00022020563483238218,-0.0003127846866846085,-0.00035198405385017395,0
132,1549653327689461,0.05285722389817238,0.05879117175936699,0.7497041821479797,0.00022009573876857758,-0.00031262822449207306,-0.00035180896520614624,0
133,1549653327739461,0.05400629341602325,0.05585161224007607,0.7498797178268433,-0.0003118608146905899,-0.0003124717622995377,-0.00035163387656211853,0
134,1549653327789461,0.053431760519742966,0.05585161224007607,0.7500552535057068,-0.0003117043524980545,-0.00031231530010700226,-0.0003514587879180908,0
135,1549653327839461,0.05400629341602325,0.0543818324804306,0.7500552535057068,-0.0003115478903055192,-0.0003121588379144669,-0.0003512836992740631,0
136,1549653327889461,0.05400629341602325,0.0543818324804306,0.7491775751113892,-0.0003113914281129837,0.0002198442816734314,-0.0003511086106300353,0
137,1549653327939461,0.054580830037593835,0.05585161224007607,0.7495286464691162,0.0002206116914749145,0.0002197343856096268,-0.0003509335219860077,0
138,1549653327989461,0.05400629341602325,0.05585161224007607,0.7497041821479797,0.00022050179541110992,-0.0003122221678495406,-0.00035075843334198,0
139,1549653328039461,0.05285722389817238,0.05879117175936699,0.7497041821479797,0.00022039189934730527,0.0002197809517383576,-0.00035058334469795227,0
140,1549653328089461,0.053431760519742966,0.0543818324804306,0.7495286464691162,-0.0003115646541118622,-0.00031217560172080994,-0.00035040825605392456,0
141,1549653328139461,0.05285722389817238,0.05732139199972153,0.7498797178268433,-0.0003114081919193268,-0.00031201913952827454,0.000181613489985466,0
142,1549653328189461,0.053431760519742966,0.05732139199972153,0.7497041821479797,0.00022059492766857147,0.0002199839800596237,0.0001815222203731537,0
143,1549653328239461,0.05285722389817238,0.06026095151901245,0.7498797178268433,0.00022048503160476685,0.0002198740839958191,0.0007132776081562043,0
144,1549653328289461,0.0517081543803215,0.05732139199972153,0.7495286464691162,0.00022037513554096225,-0.0003120824694633484,0.00018107332289218903,0
145,1549653328339461,0.05228269100189209,0.052912052720785134,0.7505818605422974,-0.00031158141791820526,-0.000311926007270813,0.00018098205327987668,0
146,1549653328389461,0.05285722389817238,0.05585161224007607,0.7497041821479797,0.00022042170166969302,-0.00031176954507827764,0.0001808907836675644,0
147,1549653328439461,0.05228269100189209,0.05732139199972153,0.7488265037536621,0.00022031180560588837,0.0002202335745096207,-0.0003510471433401108,0
148,1549653328489461,0.0517081543803215,0.05732139199972153,0.7486509680747986,0.00022020190954208374,-0.0003117229789495468,0.00018097460269927976,0
149,1549653328539461,0.0517081543803215,0.0543818324804306,0.7495286464691162,0.00022009201347827911,-0.00031156651675701136,-0.0003509633243083954,0
150,1549653328589461,0.05228269100189209,0.0543818324804306,0.7495286464691162,0.00021998211741447446,0.00022043660283088681,-0.0003507882356643677,0
151,1549653328639461,0.05400629341602325,0.06026095151901245,0.7495286464691162,0.0007517188787460327,0.0002203267067670822,-0.00035061314702033997,0
152,1549653328689461,0.053431760519742966,0.05732139199972153,0.7495286464691162,0.0007513426244258881,0.0002202168107032776,0.0001814085990190506,0
153,1549653328739461,0.053431760519742966,0.06026095151901245,0.7490020394325256,0.00021911971271038053,-0.0003117397427558899,-0.00035052932798862457,0
154,1549653328789461,0.053431760519742966,0.0543818324804306,0.7491775751113892,-0.00031283684074878687,-0.0003115832805633545,-0.00035035423934459686,0
155,1549653328839461,0.05400629341602325,0.0543818324804306,0.7498797178268433,-0.0003126803785562515,-0.00031142681837081915,-0.00035017915070056915,0
156,1549653328889461,0.05515536665916443,0.052912052720785134,0.7500552535057068,0.0002193227410316468,-0.0003112703561782837,-0.00035000406205654144,0
157,1549653328939461,0.05285722389817238,0.05585161224007607,0.7504063248634338,-0.00031263381242752075,-0.0003111138939857483,-0.00034982897341251373,0
158,1549653328989461,0.05228269100189209,0.05585161224007607,0.7493531107902527,-0.0003124773502349853,-0.000842805951833725,0.00018219277262687683,0
159,1549653329039461,0.05228269100189209,0.05585161224007607,0.7488265037536621,-0.00031232088804244995,-0.00031053833663463587,-0.00034974515438079834,0
160,1549653329089461,0.05285722389817238,0.05732139199972153,0.7495286464691162,0.0002196822315454483,-0.00031038373708724976,-0.00034957006573677063,0
161,1549653329139461,0.053431760519742966,0.05879117175936699,0.7500552535057068,-0.0003122743219137192,-0.00031022913753986364,0.00018245168030262,0
162,1549653329189461,0.053431760519742966,0.05732139199972153,0.7502307891845703,-0.0003121178597211838,-0.0003100745379924774,-0.00034948624670505524,0
163,1549653329239461,0.053431760519742966,0.05585161224007607,0.7498797178268433,0.00021988525986671448,-0.00030991993844509125,-0.00034931115806102747,0
164,1549653329289461,0.0517081543803215,0.05879117175936699,0.7495286464691162,-0.000312071293592453,-0.0003097653388977052,0.00018271058797836304,0
165,1549653329339461,0.053431760519742966,0.0543818324804306,0.7502307891845703,0.00021993182599544525,-0.0003096107393503189,0.00018261931836605072,0
166,1549653329389461,0.05400629341602325,0.05585161224007607,0.7498797178268433,0.00021982192993164065,-0.00030945613980293274,-0.00034931860864162445,0
167,1549653329439461,0.0517081543803215,0.05879117175936699,0.7493531107902527,0.000219712033867836,-0.00030930154025554657,-0.00034914351999759685,0
168,1549653329489461,0.05285722389817238,0.05879117175936699,0.7488265037536621,0.00021960213780403137,-0.00030914694070816035,0.00018287822604179385,0
169,1549653329539461,0.05113362148404122,0.06026095151901245,0.7500552535057068,-0.0003123544156551361,0.00022285431623458862,0.0001827869564294815,0
170,1549653329589461,0.053431760519742966,0.05585161224007607,0.7498797178268433,0.0002196487039327621,0.00022274255752563482,0.0001826956868171692,0
171,1549653329639461,0.0517081543803215,0.05585161224007607,0.7490020394325256,0.00021953880786895752,-0.000309215858578682,0.00018260441720485687,0
172,1549653329689461,0.053431760519742966,0.052912052720785134,0.7495286464691162,-0.00031241774559021,-0.0003090612590312958,0.00018251314759254456,0
173,1549653329739461,0.0517081543803215,0.05585161224007607,0.7495286464691162,-0.00031226128339767456,-0.0003089066594839096,0.00018242187798023224,0
174,1549653329789461,0.0517081543803215,0.052912052720785134,0.7491775751113892,0.0002197418361902237,0.00022309459745883944,0.0007141772657632827,0
175,1549653329839461,0.053431760519742966,0.0543818324804306,0.7491775751113892,-0.0003122147172689438,0.00022298283874988559,0.0001819729804992676,0
176,1549653329889461,0.05113362148404122,0.05879117175936699,0.7498797178268433,-0.0003120582550764084,0.0002228710800409317,-0.0003499649465084076,0
177,1549653329939461,0.05400629341602325,0.05732139199972153,0.7498797178268433,-0.000311901792883873,0.00022275932133197784,0.0007139034569263457,0
178,1549653329989461,0.053431760519742966,0.05732139199972153,0.7495286464691162,-0.00031174533069133764,0.00022264756262302401,0.00018169917166233063,0
179,1549653330039461,0.053431760519742966,0.05879117175936699,0.7502307891845703,0.0007521044462919235,-0.00030931085348129267,-0.00035023875534534454,0
180,1549653330089461,0.053431760519742966,0.05879117175936699,0.7493531107902527,0.000219881534576416,-0.00030915625393390656,-0.00035006366670131683,0
181,1549653330139461,0.05285722389817238,0.05879117175936699,0.7497041821479797,-0.00031207501888275136,0.00022284500300884247,0.00018195807933807373,0
182,1549653330189461,0.05228269100189209,0.052912052720785134,0.7500552535057068,-0.00031191855669021606,-0.00030911341309547424,0.0007137134671211243,0
183,1549653330239461,0.05400629341602325,0.05585161224007607,0.7500552535057068,0.0002200845628976822,-0.00030895881354808813,0.00018150918185710907,0
184,1549653330289461,0.05400629341602325,0.05732139199972153,0.7500552535057068,-0.0008437186479568481,-0.00030880421400070185,-0.0003504287451505661,0
185,1549653330339461,0.05285722389817238,0.0543818324804306,0.7488265037536621,-0.00031144917011260986,0.00022319704294204712,-0.0003502536565065384,0
186,1549653330389461,0.053431760519742966,0.06026095151901245,0.7495286464691162,-0.00031129270792007446,0.00022308528423309326,0.00018176808953285212,0
187,1549653330439461,0.053431760519742966,0.05585161224007607,0.7490020394325256,0.00022071041166782382,0.0002229735255241394,0.00018167681992053986,0
188,1549653330489461,0.053431760519742966,0.0543818324804306,0.7495286464691162,0.0002206005156040192,0.0007547084242105483,-0.0003502611070871353,0
189,1549653330539461,0.0517081543803215,0.05585161224007607,0.7498797178268433,-0.0003113560378551483,0.0002224836498498917,-0.0003500860184431076,0
190,1549653330589461,0.0517081543803215,0.05585161224007607,0.7497041821479797,-0.0003111995756626129,-0.00030947476625442505,0.00018193572759628296,0
191,1549653330639461,0.05228269100189209,0.05585161224007607,0.7493531107902527,-0.0003110431134700775,-0.0003093201667070389,0.00018184445798397064,0
192,1549653330689461,0.05228269100189209,0.05585161224007607,0.7495286464691162,0.0007528066635131836,0.00022268109023571006,0.00018175318837165835,0
193,1549653330739461,0.05113362148404122,0.0543818324804306,0.7498797178268433,0.00022058375179767609,0.0002225693315267563,-0.00035018473863601685,0
194,1549653330789461,0.05285722389817238,0.06026095151901245,0.7498797178268433,0.00022047385573387143,0.00022245757281780243,0.0001818370074033737,0
195,1549653330839461,0.05285722389817238,0.05585161224007607,0.7497041821479797,0.00022036395967006683,-0.0003095008432865143,0.0001817457377910614,0
196,1549653330889461,0.053431760519742966,0.0543818324804306,0.7505818605422974,0.0002202540636062622,-0.0003093462437391281,0.00018165446817874908,0
197,1549653330939461,0.053431760519742966,0.052912052720785134,0.7502307891845703,0.0002201441675424576,0.0002226550132036209,0.0007134098559617996,0
198,1549653330989461,0.05400629341602325,0.06026095151901245,0.7502307891845703,0.00022003427147865293,0.00022254325449466705,0.0001812055706977844,0
199,1549653331039461,0.05228269100189209,0.05732139199972153,0.7495286464691162,0.00021992437541484833,0.0002224314957857132,0.0001811143010854721,0
200,1549653331089461,0.054580830037593835,0.05585161224007607,0.7500552535057068,0.00021981447935104367,0.00022231973707675934,0.00018102303147315984,0
201,1549653331139461,0.05285722389817238,0.05585161224007607,0.7498797178268433,0.00021970458328723907,0.00022220797836780548,0.0007127802819013598,0
202,1549653331189461,0.053431760519742966,0.0543818324804306,0.7505818605422974,0.00021959468722343445,0.00022209621965885162,0.0001805778592824936,0
203,1549653331239461,0.053431760519742966,0.05585161224007607,0.7504063248634338,0.0007513314485549928,0.00022198446094989777,0.0001804884523153305,0
204,1549653331289461,0.053431760519742966,0.0543818324804306,0.7498797178268433,0.00021910853683948517,-0.0003099739551544189,0.00018039904534816742,0
205,1549653331339461,0.054580830037593835,0.05732139199972153,0.7495286464691162,0.00021899864077568046,-0.0003098193556070329,-0.00035153888165950764,0
206,1549653331389461,0.05515536665916443,0.0543818324804306,0.7497041821479797,0.00021888874471187592,-0.0003096647560596466,0.00018048472702503204,0
207,1549653331439461,0.053431760519742966,0.05585161224007607,0.7498797178268433,0.0002187788486480713,-0.00030951015651226044,0.00018039532005786896,0
208,1549653331489461,0.05228269100189209,0.05585161224007607,0.7500552535057068,-0.0003131777048110962,0.00022249110043048859,0.0007121525704860687,0
209,1549653331539461,0.05228269100189209,0.05585161224007607,0.7495286464691162,-0.0003130212426185608,-0.0003094673156738281,0.00017995014786720276,0
210,1549653331589461,0.05285722389817238,0.05732139199972153,0.7491775751113892,0.00021898187696933746,-0.000309312716126442,0.0007117073982954025,0
211,1549653331639461,0.05228269100189209,0.05732139199972153,0.7495286464691162,0.00021887198090553284,0.00022268854081630707,0.00017950497567653656,0
212,1549653331689461,0.0517081543803215,0.052912052720785134,0.7493531107902527,-0.00031308457255363464,0.0002225767821073532,0.00017941556870937347,0
213,1549653331739461,0.05228269100189209,0.052912052720785134,0.7498797178268433,0.0002189185470342636,-0.0003093816339969635,0.0001793261617422104,0
214,1549653331789461,0.05228269100189209,0.05144227296113968,0.7498797178268433,0.00021880865097045896,-0.00030922703444957733,0.0001792367547750473,0
215,1549653331839461,0.05228269100189209,0.0543818324804306,0.7502307891845703,0.00021869875490665439,-0.0003090724349021912,-0.00035269930958747864,0
216,1549653331889461,0.0517081543803215,0.05144227296113968,0.7497041821479797,0.00021858885884284973,-0.000308917835354805,-0.0003525223582983017,0
217,1549653331939461,0.0517081543803215,0.05144227296113968,0.7498797178268433,0.0002184789627790451,-0.0003087632358074188,-0.0003523454070091248,0
218,1549653331989461,0.0517081543803215,0.05585161224007607,0.7493531107902527,0.00021836906671524048,-0.0003086086362600326,0.00017967820167541504,0
219,1549653332039461,0.0517081543803215,0.06173073127865791,0.7497041821479797,-0.000313587486743927,0.0002233926206827164,0.0007114354521036147,0
220,1549653332089461,0.0517081543803215,0.05732139199972153,0.7495286464691162,0.00021841563284397125,-0.00030856579542160034,0.00017923302948474884,0
221,1549653332139461,0.05113362148404122,0.05585161224007607,0.7497041821479797,0.00021830573678016665,0.00022343546152114868,-0.0008845478296279908,0
222,1549653332189461,0.05228269100189209,0.05732139199972153,0.7498797178268433,-0.00031365081667900085,-0.00030852295458316803,0.00017958693206310272,0
223,1549653332239461,0.0517081543803215,0.05585161224007607,0.7500552535057068,-0.00031349435448646545,-0.00030836835503578186,0.00017949752509593964,0
224,1549653332289461,0.054580830037593835,0.05585161224007607,0.7498797178268433,0.0002185087651014328,-0.0003082137554883957,0.00017940811812877655,0
225,1549653332339461,0.053431760519742966,0.05585161224007607,0.7493531107902527,-0.0003134477883577347,0.00022378750145435333,0.00017931871116161346,0
226,1549653332389461,0.05113362148404122,0.05585161224007607,0.7491775751113892,0.0002185553312301636,-0.0003081709146499634,0.00017922930419445038,0
227,1549653332439461,0.05113362148404122,0.05732139199972153,0.7495286464691162,0.0002184454351663589,-0.0003080163151025772,0.0001791398972272873,0
228,1549653332489461,0.05228269100189209,0.05585161224007607,0.7502307891845703,-0.0003135111182928085,0.00022398494184017181,0.0001790504902601242,0
229,1549653332539461,0.05228269100189209,0.05732139199972153,0.7502307891845703,-0.00031335465610027313,0.000223873183131218,0.00017896108329296112,0
230,1549653332589461,0.05285722389817238,0.05585161224007607,0.7500552535057068,-0.00031319819390773773,0.0002237614244222641,-0.0003529749810695648,0
231,1549653332639461,0.053431760519742966,0.05732139199972153,0.7497041821479797,-0.00031304173171520233,0.00022364966571331024,0.0007108952850103378,0
232,1549653332689461,0.05400629341602325,0.05732139199972153,0.7495286464691162,-0.00031288526952266693,0.00022353790700435638,0.00017869286239147186,0
233,1549653332739461,0.053431760519742966,0.05585161224007607,0.7500552535057068,0.00021911785006523127,0.00022342614829540253,0.00017860345542430878,0
234,1549653332789461,0.054580830037593835,0.0543818324804306,0.7498797178268433,-0.00031283870339393616,-0.0003085322678089142,0.0001785140484571457,0
235,1549653332839461,0.054580830037593835,0.05585161224007607,0.7497041821479797,-0.00031268224120140076,0.00022346898913383487,0.0001784246414899826,0
236,1549653332889461,0.053431760519742966,0.05879117175936699,0.7497041821479797,-0.00031252577900886536,-0.00030848942697048187,0.00017833523452281952,0
237,1549653332939461,0.053431760519742966,0.05585161224007607,0.7497041821479797,0.0002194773405790329,0.00022351182997226715,0.00017824582755565643,0
238,1549653332989461,0.05400629341602325,0.05732139199972153,0.7493531107902527,-0.00031247921288013464,-0.0003084465861320496,0.0007100030779838562,0
239,1549653333039461,0.05400629341602325,0.05879117175936699,0.7495286464691162,-0.0003123227506875992,-0.0003082919865846634,0.00017780065536499023,0
240,1549653333089461,0.05228269100189209,0.06026095151901245,0.7497041821479797,-0.00031216628849506384,0.00022370927035808563,-0.0003541354089975357,0
241,1549653333139461,0.05228269100189209,0.05585161224007607,0.7493531107902527,-0.0003120098263025284,-0.0003082491457462311,-0.00035395845770835876,0
242,1549653333189461,0.053431760519742966,0.05732139199972153,0.7490020394325256,0.00021999329328536987,-0.00030809454619884486,-0.0003537815064191818,0
243,1549653333239461,0.05285722389817238,0.06026095151901245,0.7493531107902527,-0.0003119632601737976,-0.00030793994665145874,-0.0003536045551300049,0
244,1549653333289461,0.05113362148404122,0.05732139199972153,0.7500552535057068,-0.0003118067979812622,0.00022406131029129028,-0.000353427603840828,0
245,1549653333339461,0.05400629341602325,0.05879117175936699,0.7493531107902527,0.00022019632160663605,0.00022394955158233643,0.00017859600484371185,0
246,1549653333389461,0.05285722389817238,0.05732139199972153,0.7495286464691162,0.00022008642554283145,-0.0003080088645219804,-0.0003533400595188141,0
247,1549653333439461,0.05400629341602325,0.05732139199972153,0.7500552535057068,0.0002199765294790268,-0.0003078542649745941,-0.00035316310822963715,0
248,1549653333489461,0.05515536665916443,0.05585161224007607,0.7495286464691162,0.00021986663341522217,-0.00030769966542720795,0.00017886050045490265,0
249,1549653333539461,0.05400629341602325,0.0543818324804306,0.7497041821479797,0.00021975673735141754,0.00022430159151554108,-0.0003530755639076233,0
250,1549653333589461,0.053431760519742966,0.05144227296113968,0.7497041821479797,-0.00031219981610774994,0.00022418983280658722,-0.00035289861261844635,0
251,1549653333639461,0.054580830037593835,0.0543818324804306,0.7502307891845703,-0.0003120433539152145,0.00022407807409763336,0.00017912499606609344,0
252,1549653333689461,0.05515536665916443,0.0543818324804306,0.7500552535057068,-0.00031188689172267914,0.0002239663153886795,0.00017903558909893036,0
253,1549653333739461,0.05400629341602325,0.05732139199972153,0.7491775751113892,0.00022011622786521914,-0.0003079921007156372,-0.0003529004752635956,0
254,1549653333789461,0.05285722389817238,0.0543818324804306,0.7500552535057068,0.0002200063318014145,-0.00030783750116825104,-0.00035272352397441864,0
255,1549653333839461,0.05285722389817238,0.0543818324804306,0.7502307891845703,0.00021989643573760984,-0.00030768290162086487,-0.0003525465726852417,0
256,1549653333889461,0.053431760519742966,0.0543818324804306,0.7495286464691162,-0.0003120601177215576,0.00022431835532188418,0.0001794770359992981,0
257,1549653333939461,0.05400629341602325,0.05732139199972153,0.7495286464691162,-0.00031190365552902216,-0.00030764006078243256,-0.00035245902836322784,0
258,1549653333989461,0.05285722389817238,0.05732139199972153,0.7493531107902527,-0.0003117471933364868,-0.0003074854612350464,-0.0003522820770740509,0
259,1549653334039461,0.053431760519742966,0.05585161224007607,0.7488265037536621,-0.00031159073114395136,0.00022451579570770264,0.0007115881890058517,0
260,1549653334089461,0.05400629341602325,0.0543818324804306,0.7495286464691162,0.00022041238844394684,0.00022440403699874878,0.00017938576638698578,0
261,1549653334139461,0.0517081543803215,0.0543818324804306,0.7490020394325256,0.00022030249238014213,-0.00030755437910556804,0.0001792963594198227,0
262,1549653334189461,0.05228269100189209,0.05585161224007607,0.7491775751113892,0.00022019259631633759,0.0002244468778371811,-0.00035263970494270325,0
263,1549653334239461,0.05228269100189209,0.05585161224007607,0.7491775751113892,-0.0003117639571428299,0.00022433511912822723,-0.0003524627536535263,0
264,1549653334289461,0.053431760519742966,0.06026095151901245,0.7488265037536621,-0.0003116074949502945,-0.0003076232969760895,0.0001795608550310135,0
265,1549653334339461,0.05285722389817238,0.05585161224007607,0.7493531107902527,-0.0003114510327577592,-0.0003074686974287033,-0.00035237520933151245,0
266,1549653334389461,0.05228269100189209,0.052912052720785134,0.7497041821479797,0.00022055208683013921,-0.00030731409788131714,0.00017964839935302734,0
267,1549653334439461,0.053431760519742966,0.052912052720785134,0.7500552535057068,-0.0003114044666290283,0.00022468715906143188,0.0007114056497812271,0
268,1549653334489461,0.053431760519742966,0.0543818324804306,0.7497041821479797,0.00022059865295887002,-0.0003072712570428848,0.00017920322716236115,0
269,1549653334539461,0.053431760519742966,0.05144227296113968,0.7491775751113892,0.00022048875689506533,-0.00030711852014064783,-0.0003527328372001648,0
270,1549653334589461,0.05515536665916443,0.0543818324804306,0.7497041821479797,0.0007522255182266235,-0.00030696578323841095,0.000179290771484375,0
271,1549653334639461,0.05285722389817238,0.05879117175936699,0.7495286464691162,0.00022000260651111603,0.00022503547370433807,0.00017920136451721191,0
272,1549653334689461,0.05285722389817238,0.0543818324804306,0.7491775751113892,0.0002198927104473114,0.00022492371499538422,0.00017911195755004883,0
273,1549653334739461,0.053431760519742966,0.05879117175936699,0.7498797178268433,-0.0003120638430118561,0.0002248119562864304,0.00017902255058288574,0
274,1549653334789461,0.054580830037593835,0.06026095151901245,0.7486509680747986,0.00021993927657604215,0.0002247001975774765,0.0007107798010110855,0
275,1549653334839461,0.053431760519742966,0.05585161224007607,0.7493531107902527,-0.0003120172768831253,0.00022458843886852264,0.00017857737839221954,0
276,1549653334889461,0.05285722389817238,0.05879117175936699,0.7500552535057068,0.0002199858427047729,0.0002244766801595688,-0.0003533586859703064,0
277,1549653334939461,0.05400629341602325,0.0543818324804306,0.7497041821479797,0.00021987594664096832,0.00022436492145061493,0.0001786649227142334,0
278,1549653334989461,0.05285722389817238,0.05732139199972153,0.7498797178268433,-0.00031208060681819916,-0.0003075934946537018,-0.00035327114164829254,0
279,1549653335039461,0.05285722389817238,0.0543818324804306,0.7490020394325256,-0.00031192414462566376,-0.0003074388951063156,0.0007105991244316101,0
280,1549653335089461,0.05400629341602325,0.0543818324804306,0.7493531107902527,-0.00031176768243312836,-0.00030728429555892944,0.00017839670181274414,0
281,1549653335139461,0.053431760519742966,0.05585161224007607,0.7491775751113892,-0.00031161122024059296,0.00022471696138381958,0.00017830729484558103,0
282,1549653335189461,0.053431760519742966,0.05585161224007607,0.7490020394325256,0.00022039189934730527,0.00022460520267486567,0.00017821788787841797,0
283,1549653335239461,0.053431760519742966,0.05585161224007607,0.7493531107902527,0.00022028200328350067,-0.000307353213429451,0.00017812848091125488,0
284,1549653335289461,0.0517081543803215,0.052912052720785134,0.7498797178268433,0.00022017210721969604,-0.0003071986138820648,-0.00035380758345127106,0
285,1549653335339461,0.0517081543803215,0.05732139199972153,0.7498797178268433,0.00022006221115589145,-0.0003070458769798279,0.00017821602523326874,0
286,1549653335389461,0.05285722389817238,0.06173073127865791,0.7488265037536621,0.00021995231509208682,-0.00030689314007759094,0.00017812661826610565,0
287,1549653335439461,0.0517081543803215,0.05879117175936699,0.7491775751113892,0.000751689076423645,0.00022510811686515805,0.00017803721129894257,0
288,1549653335489461,0.05285722389817238,0.052912052720785134,0.7500552535057068,0.0002194661647081375,0.00022499635815620425,0.00017794780433177948,0
289,1549653335539461,0.054580830037593835,0.0543818324804306,0.7495286464691162,0.00021935626864433289,0.0002248845994472504,-0.00035398826003074646,0
290,1549653335589461,0.05113362148404122,0.05585161224007607,0.7497041821479797,0.00021924637258052826,0.00022477284073829648,-0.0003538113087415694,0
291,1549653335639461,0.05228269100189209,0.052912052720785134,0.7502307891845703,-0.0003127101808786392,-0.0003071855753660201,0.00017821229994297028,0
292,1549653335689461,0.053431760519742966,0.052912052720785134,0.7495286464691162,0.0007511395961046219,0.00022481568157672882,0.0001781228929758072,0
293,1549653335739461,0.053431760519742966,0.05585161224007607,0.7500552535057068,0.0007507633417844772,0.0007565505802631378,0.0001780334860086441,0
294,1549653335789461,0.053431760519742966,0.052912052720785134,0.7505818605422974,-0.0003133062273263932,0.0002243258059024811,-0.00035390257835388184,0
295,1549653335839461,0.05228269100189209,0.052912052720785134,0.7495286464691162,0.00021869689226150515,-0.00030763261020183563,0.00017812103033065796,0
296,1549653335889461,0.0517081543803215,0.05585161224007607,0.7486509680747986,0.0002185869961977005,0.00022436864674091342,-0.00035381503403186804,0
297,1549653335939461,0.0517081543803215,0.05144227296113968,0.7490020394325256,-0.000313369557261467,-0.0003075897693634033,-0.00035363808274269104,0
298,1549653335989461,0.0517081543803215,0.0543818324804306,0.7495286464691162,0.00021863356232643127,0.0002244114875793457,-0.0003534611314535141,0
299,1549653336039461,0.05228269100189209,0.0543818324804306,0.7500552535057068,-0.0003133229911327362,0.00022429972887039185,0.0001785624772310257,0
300,1549653336089461,0.05228269100189209,0.05732139199972153,0.7497041821479797,-0.0003131665289402008,0.000224187970161438,-0.00035337358713150024,0
301,1549653336139461,0.05228269100189209,0.05585161224007607,0.7493531107902527,-0.0008448567241430283,0.00022407621145248413,0.00017865002155303955,0
302,1549653336189461,0.05285722389817238,0.05879117175936699,0.7491775751113892,-0.0008444339036941527,0.00022396445274353027,-0.0003532860428094864,0
303,1549653336239461,0.05285722389817238,0.05879117175936699,0.7500552535057068,-0.0003121644258499145,-0.00030799396336078644,-0.00035310909152030945,0
304,1549653336289461,0.05285722389817238,0.05879117175936699,0.7500552535057068,0.0002198386937379837,-0.00030783936381340027,0.00017891451716423037,0
305,1549653336339461,0.05113362148404122,0.05585161224007607,0.7498797178268433,0.00021972879767417908,0.00022416189312934878,0.00017882511019706726,0
306,1549653336389461,0.0517081543803215,0.05732139199972153,0.7495286464691162,0.00021961890161037445,0.00022405013442039487,0.000710582360625267,0
307,1549653336439461,0.05285722389817238,0.0543818324804306,0.7498797178268433,0.00021950900554656985,0.000223938375711441,0.00017837993800640106,0
308,1549653336489461,0.053431760519742966,0.0543818324804306,0.7497041821479797,-0.00031244754791259766,-0.00030802004039287567,0.00017829053103923798,0
309,1549653336539461,0.05228269100189209,0.05879117175936699,0.7500552535057068,-0.00031229108572006226,-0.0003078654408454895,0.0007100477814674377,0
310,1549653336589461,0.05228269100189209,0.05585161224007607,0.7500552535057068,-0.00031213462352752686,0.00022413581609725952,0.00017784535884857178,0
311,1549653336639461,0.05285722389817238,0.05732139199972153,0.7500552535057068,0.0002198684960603714,-0.0003078226000070572,0.0007096026092767714,0
312,1549653336689461,0.0517081543803215,0.05732139199972153,0.7502307891845703,-0.00031208805739879614,0.00022417865693569183,0.00017740018665790558,0
313,1549653336739461,0.05228269100189209,0.05879117175936699,0.7502307891845703,-0.0003119315952062607,-0.0003077797591686249,-0.00035453587770462036,0
314,1549653336789461,0.0517081543803215,0.0543818324804306,0.7490020394325256,-0.0003117751330137253,-0.0003076251596212386,-0.00035435892641544337,0
315,1549653336839461,0.053431760519742966,0.052912052720785134,0.7495286464691162,-0.0003116186708211899,-0.00030747056007385254,-0.0003541819751262665,0
316,1549653336889461,0.053431760519742966,0.05879117175936699,0.7493531107902527,-0.0003114622086286545,0.00022453069686889648,0.00017784163355827332,0
317,1549653336939461,0.05228269100189209,0.0543818324804306,0.7500552535057068,0.0002205409109592437,0.00022441893815994263,0.00017775222659111023,0
318,1549653336989461,0.053431760519742966,0.052912052720785134,0.7495286464691162,-0.0003114156424999237,0.0007561538368463516,0.00017766281962394714,0
319,1549653337039461,0.053431760519742966,0.05585161224007607,0.7498797178268433,0.00022058747708797447,0.00022392906248569489,-0.0003542732447385788,0
320,1549653337089461,0.05228269100189209,0.06173073127865791,0.7495286464691162,0.00022047758102416992,-0.0003080293536186218,-0.00035409629344940186,0
321,1549653337139461,0.053431760519742966,0.0543818324804306,0.7500552535057068,-0.0003114789724349976,-0.0003078747540712357,0.00017792731523513794,0
322,1549653337189461,0.05228269100189209,0.05585161224007607,0.7493531107902527,-0.00031132251024246216,0.00022412650287151337,-0.000354008749127388,0
323,1549653337239461,0.053431760519742966,0.0543818324804306,0.7498797178268433,0.0002206806093454361,0.0002240147441625595,0.0001780148595571518,0
324,1549653337289461,0.0517081543803215,0.05879117175936699,0.7504063248634338,0.0002205707132816315,0.00022390298545360565,0.0001779254525899887,0
325,1549653337339461,0.053431760519742966,0.05585161224007607,0.7497041821479797,-0.000311385840177536,-0.00030805543065071106,0.00017783604562282562,0
326,1549653337389461,0.053431760519742966,0.0543818324804306,0.7504063248634338,0.0007524639368057251,-0.00030790083110332484,0.00017774663865566254,0
327,1549653337439461,0.05400629341602325,0.05585161224007607,0.7500552535057068,0.0002202410250902176,-0.00030774623155593867,0.00017765723168849945,0
328,1549653337489461,0.053431760519742966,0.05144227296113968,0.7497041821479797,0.00022013112902641294,-0.00030759163200855255,0.00017756782472133636,0
329,1549653337539461,0.05400629341602325,0.05732139199972153,0.7504063248634338,-0.0003118254244327545,-0.0003074370324611664,-0.00035436823964118963,0
330,1549653337589461,0.05400629341602325,0.0543818324804306,0.7495286464691162,0.0002201776951551437,0.00022456422448158261,0.00017765536904335022,0
331,1549653337639461,0.05285722389817238,0.0543818324804306,0.7493531107902527,0.0002200677990913391,0.0007562991231679916,0.00017756596207618708,0
332,1549653337689461,0.053431760519742966,0.0543818324804306,0.7500552535057068,-0.00031188875436782837,0.0002240743488073349,0.00017747655510902405,0
333,1549653337739461,0.05285722389817238,0.0543818324804306,0.7504063248634338,-0.00031173229217529297,-0.0003078840672969818,-0.0008863043040037154,0
334,1549653337789461,0.053431760519742966,0.0543818324804306,0.7502307891845703,-0.0003115758299827576,-0.00030772946774959564,-0.0008858609944581984,0
335,1549653337839461,0.05228269100189209,0.0543818324804306,0.7505818605422974,-0.00031141936779022217,0.00022427178919315338,-0.000353572890162468,0
336,1549653337889461,0.05400629341602325,0.05585161224007607,0.7498797178268433,-0.0003112629055976868,-0.00030768662691116333,0.00017845071852207184,0
337,1549653337939461,0.053431760519742966,0.05879117175936699,0.7505818605422974,-0.00031110644340515137,-0.0003075320273637772,-0.0003534853458404541,0
338,1549653337989461,0.05285722389817238,0.05732139199972153,0.7505818605422974,-0.000310949981212616,-0.000307377427816391,-0.0003533083945512772,0
339,1549653338039461,0.05228269100189209,0.0543818324804306,0.7500552535057068,0.00022105313837528231,0.00022462382912635806,-0.0003531314432621002,0
340,1549653338089461,0.05285722389817238,0.0543818324804306,0.7486509680747986,-0.0003109052777290344,0.0002245120704174041,0.00017889216542243958,0
341,1549653338139461,0.053431760519742966,0.05732139199972153,0.7493531107902527,0.00022109784185886383,0.00022440031170845034,0.0001788027584552765,0
342,1549653338189461,0.0517081543803215,0.05732139199972153,0.7497041821479797,0.00022098794579505918,-0.00030755810439586634,0.0001787133514881134,0
343,1549653338239461,0.053431760519742966,0.05585161224007607,0.7498797178268433,0.00022087804973125455,0.00022444315254688263,-0.0003532227128744125,0
344,1549653338289461,0.05228269100189209,0.05585161224007607,0.7500552535057068,0.00022076815366744995,-0.00030751526355743414,-0.00035304576158523565,0
345,1549653338339461,0.05285722389817238,0.05585161224007607,0.7500552535057068,-0.00031118839979171764,-0.00030736066401004786,-0.00035286881029605865,0
346,1549653338389461,0.0517081543803215,0.0543818324804306,0.7491775751113892,-0.00031103193759918213,-0.00030720606446266174,-0.0003526918590068817,0
347,1549653338439461,0.053431760519742966,0.05585161224007607,0.7495286464691162,0.00022097118198871613,-0.0003070533275604248,0.00017933174967765808,0
348,1549653338489461,0.05228269100189209,0.05732139199972153,0.7490020394325256,0.00022086128592491158,0.00022494792938232422,-0.0003526043146848678,0
349,1549653338539461,0.05228269100189209,0.05732139199972153,0.7495286464691162,0.00022075138986110687,0.00022483617067337042,0.00017941929399967194,0
350,1549653338589461,0.053431760519742966,0.0543818324804306,0.7498797178268433,0.00022064149379730225,0.0002247244119644165,0.0007111765444278718,0
351,1549653338639461,0.05285722389817238,0.05879117175936699,0.7497041821479797,0.00022053159773349762,0.00022461265325546265,0.0007108207792043687,0
352,1549653338689461,0.053431760519742966,0.05879117175936699,0.7488265037536621,0.00022042170166969302,0.0002245008945465088,0.0007104650139808655,0
353,1549653338739461,0.05400629341602325,0.05732139199972153,0.7495286464691162,0.00022031180560588837,-0.00030745752155780787,0.0007101092487573624,0
354,1549653338789461,0.05400629341602325,0.052912052720785134,0.7498797178268433,0.00022020190954208374,0.0002245437353849411,0.0001779068261384964,0
355,1549653338839461,0.0517081543803215,0.05732139199972153,0.7490020394325256,0.00022009201347827911,0.00022443197667598724,0.0001778174191713333,0
356,1549653338889461,0.054580830037593835,0.05732139199972153,0.7493531107902527,0.00021998211741447446,-0.00030752643942832947,0.00017772801220417023,1
357,1549653338939461,0.05228269100189209,0.05585161224007607,0.7500552535057068,0.00021987222135066986,-0.0003073718398809433,0.00017763860523700714,1
358,1549653338989461,0.05055908486247064,0.05585161224007607,0.7491775751113892,0.00021976232528686523,-0.0008390657603740692,0.0007093958556652067,1
359,1549653339039461,0.054580830037593835,0.05144227296113968,0.7491775751113892,-0.00031219422817230225,0.0002250485122203826,0.000709041953086853,1
360,1549653339089461,0.05228269100189209,0.05732139199972153,0.7495286464691162,-0.00031203776597976685,0.003416014835238457,0.0007086880505084991,1
361,1549653339139461,0.11663061380386353,0.07201918214559555,0.7426828742027283,-0.0008437279611825942,0.017774160951375958,0.0007083341479301453,1
362,1549653339189461,0.36425521969795227,0.06760984659194946,0.7537414431571959,-0.006696965545415878,0.05129725486040115,0.007093684747815131,1
363,1549653339239461,0.5159325003623962,0.04409337788820267,0.7465445995330809,-0.016807103529572487,0.01085669919848442,0.012946922332048416,1
364,1549653339289461,0.4665224552154541,0.02792580612003804,0.7398743033409119,-0.00828915648162365,-0.0205276720225811,0.0023035183548927307,1
365,1549653339339461,0.3194414973258972,0.002939558587968349,0.7426828742027283,0.0028852066025137893,-0.009353309869766235,-0.016320420429110527,1
366,1549653339389461,0.1694878339767456,0.029395585879683495,0.7519861459732056,-0.017867183312773705,-0.014674436300992966,-0.016320420429110527,1
367,1549653339439461,0.039642918854951865,0.03233514353632927,0.7563744783401489,0.017252245917916298,-0.02212401106953621,-0.014191968366503716,1
368,1549653339489461,-0.03703415393829346,0.12493123859167099,0.7472467422485352,0.018307311460375786,-0.0024346280843019485,-0.031203960999846462,1
369,1549653339539461,0.0563044361770153,0.047032937407493584,0.757076621055603,-0.009357860311865808,-0.016261419281363487,-0.024806203320622444,1
370,1549653339589461,0.07239141315221786,0.05732139199972153,0.7549701929092407,-0.03222257643938065,0.0012976434081792831,-0.008306559175252914,1
371,1549653339639461,0.09307467937469482,-0.02029109746217728,0.7486509680747986,0.0050227856263518325,-0.010403629392385485,-0.016811950132250786,1
372,1549653339689461,0.10284177213907242,0.08524719625711441,0.7528638243675232,-0.015189889818429947,-0.018907971680164337,-0.02212201058864593,0
373,1549653339739461,0.05055908486247064,0.026456026360392567,0.7375923991203308,-0.00029059499502182007,-0.03166283294558525,-0.012005865573883057,0
374,1549653339789461,0.11088526248931883,0.07936808466911316,0.7604117393493652,0.028429262340068817,0.0172828771173954,-0.021041253581643105,0
375,1549653339839461,0.058028038591146476,0.029395585879683495,0.7463690638542175,0.02203289046883583,-0.03644225746393204,-0.02209442667663097,0
376,1549653339889461,0.07756223529577255,0.04409337788820267,0.7482998967170715,0.026276644319295883,-0.011959100142121315,-0.022083379328250885,0
377,1549653339939461,0.06836967170238495,0.026456026360392567,0.7451403141021729,0.022008735686540604,0.0061296597123146074,-0.03111372515559196,0
378,1549653339989461,0.08330757915973662,0.02792580612003804,0.7630447745323181,-0.008849365636706352,0.010381367057561873,-0.0007829200476408005,0
379,1549653340039461,0.03217396140098572,0.06467028707265854,0.7502307891845703,0.018811076879501343,-0.021002765744924545,-0.009292073547840118,0
380,1549653340089461,0.035621173679828644,0.15726637840270996,0.7384700179100037,0.02624752372503281,-0.010887179523706436,-0.04173006117343903,0
381,1549653340139461,0.11031073331832886,0.19548064470291132,0.7556723356246948,-0.03865087404847145,0.011455814354121685,-0.0316041111946106,0
382,1549653340189461,0.07354048639535904,-0.029514322057366368,0.7440871000289917,-0.016293995082378387,-0.019928855821490288,0.031169574707746506,0
383,1549653340239461,0.08445665240287781,0.10288454592227936,0.7612894177436829,-0.005648920312523842,-0.013004887849092484,-0.04383637011051178,0
384,1549653340289461,0.02068326249718666,0.12493123859167099,0.7432094216346741,-0.04074796289205551,-0.04810025542974472,-0.015094736590981485,0
385,1549653340339461,0.07296594977378845,0.05585161224007607,0.7549701929092407,-0.015730801969766617,-0.0018055588006973267,-0.009236879646778108,0
386,1549653340389461,0.09479828178882599,0.0543818324804306,0.7556723356246948,0.02097447030246257,-0.017760051414370537,-0.038483813405036926,0
387,1549653340439461,0.07698769867420198,0.09112631529569626,0.7407519817352295,-0.0013735704123973846,-0.02519702166318893,-0.03527349978685379,0
388,1549653340489461,0.11663061380386353,0.008818675763905048,0.7644490003585815,-0.015200890600681303,-0.010824566707015038,-0.008131688460707664,0
389,1549653340539461,0.032748498022556305,0.18519218266010284,0.7398743033409119,-0.020522017031908042,-0.03849442303180695,-0.03792998939752579,0
390,1549653340589461,0.0563044361770153,0.002939558587968349,0.7453158497810364,0.00023025646805763242,-0.016137620434165,0.0014456156641244884,0
391,1549653340639461,0.07411502301692963,-0.03135896846652031,0.7430338859558105,0.03054539114236832,-0.009747395291924477,-0.042698368430137634,0
392,1549653340689461,0.09192560613155364,0.07054940611124039,0.7551457285881042,0.015638414770364758,0.002489948645234108,-0.03044455125927925,0
393,1549653340739461,0.0988200306892395,0.04556315764784813,0.7565500140190125,0.022012755274772644,-0.002297915518283844,-0.02777009457349777,0
394,1549653340789461,0.06319885700941086,0.042623598128557205,0.7404009103775024,-0.006186116486787796,-0.006551537662744522,-0.02137405425310135,0
395,1549653340839461,0.12180142849683764,0.0661400705575943,0.7444381713867188,-0.018947340548038483,0.022171448916196827,-0.012321976944804192,0
396,1549653340889461,0.13444119691848755,-0.09592154622077942,0.75865638256073,-0.0008550845086574552,0.015778202563524246,-0.013911353424191477,0
397,1549653340939461,0.08158397674560547,0.1087636649608612,0.7388210892677307,0.019887357950210568,-0.015076784417033197,-0.034114569425582886,0
398,1549653340989461,0.0706678107380867,0.07642852514982224,0.746193528175354,0.010304177179932594,-0.007091546431183816,-0.02558796666562557,0
399,1549653341039461,0.0936492159962654,0.11905211955308916,0.7528638243675232,0.006044253706932068,0.020036172121763236,-0.029829945415258408,0
400,1549653341089461,0.059177111834287636,0.10582410544157027,0.7493531107902527,0.003913845866918564,0.0152395348995924,-0.03460165113210678,0
401,1549653341139461,0.10801258683204652,0.07054940611124039,0.7509329319000244,0.008166661486029625,0.016295606270432472,-0.03192511200904846,0
402,1549653341189461,0.0614752508699894,0.04409337788820267,0.7482998967170715,0.0001848805695772171,-0.006050093099474907,-0.03137730434536934,0
403,1549653341239461,0.0798603743314743,0.12346146255731585,0.7453158497810364,-0.01364322192966938,0.020013410598039627,-0.023915765807032585,0
404,1549653341289461,0.10111816972494124,0.1205219030380249,0.7530393600463867,-0.007786087691783905,0.01362124551087618,-0.02230826765298844,0
405,1549653341339461,0.062049787491559975,0.12346146255731585,0.7407519817352295,-0.00565480999648571,-0.006063884124159813,-0.03346589207649231,0
406,1549653341389461,0.08618025481700897,0.0970054343342781,0.756725549697876,-0.01522521674633026,0.009894542396068571,-0.01749376580119133,0
407,1549653341439461,0.09135107696056366,0.049972496926784515,0.7533903717994691,0.01243841089308262,0.015208061784505844,-0.027058253064751625,0
408,1549653341489461,0.09250014275312424,0.11758234351873398,0.7474222779273987,0.006050033494830132,-0.0007549375295639037,-0.03555426746606827,0
409,1549653341539461,0.06549699604511261,0.07642852514982224,0.7533903717994691,-0.018417932093143463,0.006159445270895958,-0.011071553453803062,0
410,1549653341589461,0.017810586839914322,-0.042426839470863335,0.7470712065696716,0.003396984189748764,-0.0012894868850708008,-0.024894027039408684,0
411,1549653341639461,0.06894420832395554,0.07642852514982224,0.7504063248634338,0.007650056853890419,0.016793940216302868,-0.031263738870620734,0
412,1549653341689461,0.08618025481700897,0.13815924525260925,0.7507573962211609,-0.014159474521875381,0.005616767331957817,-0.032311797142028816,0
413,1549653341739461,0.08100944012403488,-0.038737546652555466,0.7470712065696716,-0.016279779374599457,0.008805038407444954,-0.013149172067642212,0
414,1549653341789461,0.04768640920519829,0.14991748332977295,0.7404009103775024,-0.016271639615297318,0.0066732503473758715,-0.015269981697201729,0
415,1549653341839461,0.1137579381465912,0.03821426257491112,0.7556723356246948,-0.009349500760436058,0.01783869042992592,-0.02589927799999714,0
416,1549653341889461,0.10801258683204652,0.049972496926784515,0.7495286464691162,-0.034341610968112946,-0.0050396304577589035,-0.013653855770826341,0
417,1549653341939461,0.08273304998874664,-0.0332036130130291,0.7375923991203308,-0.005072884261608125,-0.012482959777116777,-0.011519644409418106,0
418,1549653341989461,0.12065236270427705,-0.014757161028683187,0.7539169788360596,0.01513982005417347,0.005074216052889824,-0.028001125901937485,0
419,1549653342039461,0.05400629341602325,0.11905211955308916,0.7421562671661377,0.0066227056086063385,-0.020988799631595608,-0.027987126260995858,0
420,1549653342089461,0.03332303464412688,0.02792580612003804,0.7525127530097961,0.012469705194234848,-0.007150297984480858,-0.02797313220798969,0
421,1549653342139461,0.04941001534461975,0.1366894692182541,0.7523372173309326,0.01193162426352501,0.0034902077168226238,-0.029554687440395355,0
422,1549653342189461,0.07354048639535904,0.029395585879683495,0.7539169788360596,0.008734580129384995,0.01572093367576599,-0.02209405601024628,0
423,1549653342239461,0.05745350569486616,0.05144227296113968,0.7495286464691162,-0.004034103825688362,0.0018850639462471008,-0.02580593712627888,0
424,1549653342289461,0.08388211578130722,-0.0018446451285853984,0.7512840032577515,-0.005095779895782471,0.0146484375,-0.01781533658504486,0
425,1549653342339461,0.07928583770990373,0.010288454592227936,0.751810610294342,0.019371706992387768,0.003472335636615753,-0.025784125551581383,0
426,1549653342389461,0.05515536665916443,0.14109881222248075,0.7365391850471497,0.005534011870622635,0.002406908199191093,-0.03694000467658043,0
427,1549653342439461,0.10226724296808244,0.1675548404455185,0.7530393600463867,-0.02691139094531536,0.021020332351326942,-0.014052137732505798,0
428,1549653342489461,0.0988200306892395,0.020576909184455868,0.7493531107902527,-0.0013693030923604965,0.0034588873386383057,-0.025745736435055733,0
429,1549653342539461,0.06779513508081436,0.13374991714954376,0.7474222779273987,-0.0008367709815502168,-0.004520539194345474,-0.034242406487464905,0
430,1549653342589461,0.08445665240287781,0.014697792939841747,0.7553212642669678,0.002354728057980537,0.01675558090209961,-0.02092912420630455,0
431,1549653342639461,0.04998454824090004,0.06173073127865791,0.7440871000289917,-0.002433069050312043,0.0007918085902929307,-0.025173431262373924,0
432,1549653342689461,0.045962803065776825,0.002939558587968349,0.7505818605422974,0.00022738054394721982,-0.016759522259235382,-0.03260669484734535,0
433,1549653342739461,0.05572989955544472,-0.018446451053023345,0.7569010853767395,0.008204963058233261,-0.014091910794377329,-0.043227322399616235,0
434,1549653342789461,0.06779513508081436,-0.0332036130130291,0.7500552535057068,0.0018187034875154493,-0.017807789146900174,-0.02459108084440232,0
435,1549653342839461,0.06434792280197144,0.036744482815265656,0.7465445995330809,-0.002436978742480278,-0.02205365709960461,-0.030429095029830933,1
436,1549653342889461,0.0936492159962654,0.12934057414531708,0.7504063248634338,-0.005626840516924858,-0.020447090268135067,-0.028286496177315712,1
437,1549653342939461,0.059177111834287636,0.11170322448015213,0.7432094216346741,-0.005092179402709007,-0.021500561386346817,-0.018167268484830856,1
438,1549653342989461,0.10513991117477416,0.1366894692182541,0.7500552535057068,0.008738376200199127,0.004570666700601578,-0.014967106282711027,1
439,1549653343039461,0.03619570657610893,0.03233514353632927,0.7454913854598999,0.03266710042953491,-0.01564178429543972,-0.027723938226699836,1
440,1549653343089461,-0.09322389960289,0.12934057414531708,0.7537414431571959,-0.0024511031806468964,-0.005528882145881653,-0.025050844997167587,1
441,1549653343139461,-0.6781080961227417,0.06907962262630463,0.7530393600463867,-0.026396168395876884,-0.009785782545804977,-0.0096195787191391,1
442,1549653343189461,-0.9718272686004642,-0.038737546652555466,0.7609383463859558,0.004998472519218922,0.012030832469463348,0.014325484633445741,1
443,1549653343239461,-1.2898101806640625,0.0014697792939841747,0.7569010853767395,0.022026073187589645,-0.024684932082891464,-0.004830565303564072,1
444,1549653343289461,-0.7700549960136414,0.09406587481498717,0.7556723356246948,0.0012736842036247251,-0.07204294949769974,-0.011748030781745907,1
445,1549653343339461,-0.5082617998123169,0.03233514353632927,0.757076621055603,-0.016286028549075127,-0.02574915811419487,-0.005894791334867477,1
446,1549653343389461,-0.4546261429786682,0.10288454592227936,0.7497041821479797,-0.015214191749691963,-0.010844578966498377,-0.00908292643725872,1
447,1549653343439461,-0.2617931365966797,0.03968404233455658,0.7565500140190125,0.006067274138331413,-0.0007340759038925171,-0.002164378762245179,1
448,1549653343489461,-0.13536621630191806,0.1205219030380249,0.7535659074783325,0.02255148068070412,-0.00020186230540275568,-0.010672841221094131,1
449,1549653343539461,-0.052358631044626236,0.1557966023683548,0.7470712065696716,0.010307736694812776,0.0029893163591623306,0.0005012694746255875,1
450,1549653343589461,0.040791988372802734,0.06026095151901245,0.751459538936615,-0.02639482542872429,0.002987822517752648,0.022306725382804867,1
451,1549653343639461,0.10284177213907242,-0.0055339355021715156,0.7551457285881042,-0.01999946869909764,0.0061774086207151396,0.01963634043931961,1
452,1549653343689461,0.06664606928825377,0.11905211955308916,0.7423318028450012,0.007666546851396561,-0.0018033776432275766,0.010053284466266632,1
453,1549653343739461,0.1085871234536171,0.1087636649608612,0.751810610294342,-0.002974215894937516,0.03489493206143378,0.026003651320934296,1
454,1549653343789461,0.07354048639535904,0.030865365639328964,0.7430338859558105,0.004473123699426651,0.010412545874714851,0.019608493894338608,1
455,1549653343839461,0.06951874494552612,0.06467028707265854,0.7540925145149231,0.007661964744329453,0.02795827388763428,0.011089146137237549,0
456,1549653343889461,0.07181688398122787,0.004409337881952524,0.7544435858726501,-0.008829107508063316,0.019966598600149155,0.025443457067012787,0
457,1549653343939461,0.0614752508699894,0.047032937407493584,0.751459538936615,-0.00722915306687355,0.009851530194282532,0.015325651504099369,0
458,1549653343989461,0.06664606928825377,0.16608506441116333,0.7491775751113892,-0.008821077644824982,0.03537523746490478,0.007340291514992714,0
459,1549653344039461,0.07698769867420198,0.03380492329597473,0.751459538936615,0.0060750339180231094,0.007701531052589416,0.025951247662305832,0
460,1549653344089461,0.07181688398122787,0.052912052720785134,0.7497041821479797,-0.0008420087397098541,-0.014108026400208471,0.010514724999666214,0
461,1549653344139461,0.06779513508081436,0.05585161224007607,0.7528638243675232,-0.0013734344393014908,0.0023862700909376144,0.006786542013287543,0
462,1549653344189461,0.08560572564601898,-0.01660180650651455,0.7523372173309326,-0.0050956718623638144,-0.002401541918516159,0.015824537724256516,0
463,1549653344239461,0.0798603743314743,0.042623598128557205,0.7533903717994691,0.014585196971893309,-0.011973576620221138,0.011030009016394615,0
464,1549653344289461,0.0614752508699894,0.11905211955308916,0.7393476963043213,0.024682987481355667,-0.013031283393502235,0.0073015671223402015,0
465,1549653344339461,0.08445665240287781,0.1484477072954178,0.7454913854598999,-0.014685995876789091,-0.006642609834671021,0.026976237073540688,0
466,1549653344389461,0.07239141315221786,-0.0055339355021715156,0.7521616816520691,-0.0056372620165348036,-0.008766675367951393,0.03015382960438728,0
467,1549653344439461,0.0752640888094902,0.0014697792939841747,0.7451403141021729,-0.004038901999592781,-0.0034438259899616237,0.022161053493618958,0
468,1549653344489461,0.07928583770990373,0.08230763673782349,0.7530393600463867,-0.002441342920064926,-0.014079036191105844,0.02268181927502156,0
469,1549653344539461,0.05515536665916443,0.049972496926784515,0.7370657920837402,-0.001908274367451668,-0.01247645542025566,0.030648175626993183,0
470,1549653344589461,0.059751644730567925,0.06907962262630463,0.7426828742027283,-0.0008436273783445357,-0.0007695946842432022,0.02052776888012886,0
471,1549653344639461,0.09996909648180008,-0.0498054176568985,0.7463690638542175,-0.008820902556180954,0.009335874579846859,0.034345515072345734,0
472,1549653344689461,0.10111816972494124,0.07936808466911316,0.7565500140190125,-0.025835579261183742,0.0173089038580656,0.03273280337452888,0
473,1549653344739461,0.0752640888094902,-0.10145548731088637,0.7384700179100037,-0.0029532629996538162,-0.00610099546611309,0.020483966916799545,0
474,1549653344789461,0.10743805766105652,0.17637351155281067,0.7523372173309326,-0.002951785922050476,0.013048529624938965,0.010368641465902328,0
475,1549653344839461,0.06951874494552612,-0.0498054176568985,0.7597095966339111,0.038001872599124915,0.010914620012044908,0.02153223380446434,0
476,1549653344889461,0.05113362148404122,0.14697793126106262,0.7396987676620483,0.007667619735002519,-0.021001627668738358,0.020989621058106426,0
477,1549653344939461,0.09192560613155364,-0.012912516482174395,0.7626937031745911,0.02202364057302475,0.002410119399428368,0.024702051654458046,0
478,1549653344989461,0.05113362148404122,0.035274703055620193,0.751810610294342,0.012971239164471626,-0.0050369370728731155,0.014052771031856535,0
479,1549653345039461,0.043090127408504486,0.036744482815265656,0.7442626357078552,0.003391515463590622,-0.0209898129105568,0.028405599296092987,0
480,1549653345089461,0.12352503836154938,0.08818675577640532,0.7618160247802734,-0.003524184226989746,0.0034856200218200684,0.024136625230312347,0
481,1549653345139461,0.06492245942354202,0.09112631529569626,0.7465445995330809,0.008178200572729109,-0.013535210862755777,0.023592710494995117,0
482,1549653345189461,0.0660715326666832,0.03821426257491112,0.7474222779273987,0.0092378044500947,-0.0044870525598526,0.010816600173711777,0
483,1549653345239461,0.11950328946113585,0.12493123859167099,0.7505818605422974,-0.010976981371641159,-0.006612194702029228,0.020384427160024643,0
484,1549653345289461,0.09996909648180008,0.05879117175936699,0.7407519817352295,-0.007780412212014198,-0.02309613116085529,0.03207485750317573,0
485,1549653345339461,0.11548154801130295,0.036744482815265656,0.7516350746154785,0.004987792111933231,0.0061669759452343,0.010253114625811577,0
486,1549653345389461,0.1085871234536171,0.07936808466911316,0.7521616816520691,-0.0019287057220935824,-0.0012819599360227587,0.02620338276028633,0
487,1549653345439461,0.10686352103948593,-0.042426839470863335,0.7404009103775024,0.014559499919414519,-0.010854553431272508,0.021403662860393524,0
488,1549653345489461,0.12639771401882172,0.12493123859167099,0.7546191215515137,0.010297447443008423,-0.0018077362328767774,0.013947110623121263,0
489,1549653345539461,0.0752640888094902,0.0778983011841774,0.7470712065696716,-0.010981561616063118,-0.007657144218683244,0.036277689039707184,0
490,1549653345589461,0.0563044361770153,0.02204668894410133,0.7416296601295471,0.0033837836235761642,-0.0065896231681108475,0.027750007808208462,0
491,1549653345639461,0.0896274670958519,0.08524719625711441,0.7523372173309326,0.0007228609174489975,-0.02147803083062172,0.02082212828099728,0
492,1549653345689461,0.06319885700941086,0.07348896563053131,0.7497041821479797,-0.006723351776599884,-0.017744366079568863,0.028257567435503006,0
493,1549653345739461,0.0942237451672554,0.020576909184455868,0.7521616816520691,-0.025866463780403137,0.009920524433255196,0.03090267069637776,0
494,1549653345789461,0.09996909648180008,0.010288454592227936,0.740927517414093,0.003929873928427696,-0.018804147839546204,0.010677052661776544,0
495,1549653345839461,0.10284177213907242,0.017637351527810097,0.7498797178268433,0.011373759247362614,-0.023049518465995792,0.013862792402505876,0
496,1549653345889461,0.09479828178882599,-0.0258250329643488,0.7500552535057068,-0.001396244391798973,0.0003632530570030213,0.013324014842510223,0
497,1549653345939461,0.10513991117477416,0.10435432940721512,0.7442626357078552,0.0001999940723180771,-0.0007006227970123291,0.009594427421689034,0
498,1549653345989461,0.10111816972494124,0.12934057414531708,0.7451403141021729,0.0033909715712070465,-0.008677968755364418,0.02714056521654129,0
499,1549653346039461,0.10513991117477416,0.017637351527810097,0.7588319182395935,-0.014161659404635431,0.002495147287845612,0.03935946524143219,0
500,1549653346089461,0.07583862543106079,0.1087636649608612,0.7468956708908081,-0.014686426147818562,0.018449293449521058,0.023384388536214832,0
501,1549653346139461,0.0936492159962654,0.06026095151901245,0.7490020394325256,-0.0029784590005874642,0.01578083634376526,0.012203920632600784,0
502,1549653346189461,0.07871130108833313,0.02792580612003804,0.7400498390197754,0.011382886208593844,0.004072323441505432,0.028153212741017338,0
503,1549653346239461,0.1229505017399788,0.03968404233455658,0.7560234069824219,-0.0003234278410673141,0.03757661581039429,0.03292575478553772,0
504,1549653346289461,0.0706678107380867,0.11905211955308916,0.7365391850471497,-0.01468312367796898,0.014156581833958626,0.021740514785051342,0
505,1549653346339461,0.12180142849683764,0.008818675763905048,0.7468956708908081,0.005534386262297629,0.010426579043269156,0.016943026334047318,0
506,1549653346389461,0.09996909648180008,-0.003689290257170797,0.7577787637710571,0.02999655902385712,0.044459544122219086,0.014807169325649738,0
507,1549653346439461,0.06549699604511261,0.06467028707265854,0.7358370423316956,0.028386019170284268,0.02582268603146076,0.0201182309538126,0
508,1549653346489461,0.15684807300567627,0.041153818368911736,0.767608642578125,0.037431932985782616,0.01677677221596241,0.010540205985307692,0
509,1549653346539461,0.060326181352138526,0.16608506441116333,0.7423318028450012,0.01242264360189438,-0.013021530583500862,0.023843018338084214,0
510,1549653346589461,0.08043491095304489,0.09553565084934236,0.7442626357078552,-0.007793733850121498,0.005067761987447739,0.037127260118722916,0
511,1549653346639461,0.07181688398122787,0.052912052720785134,0.7577787637710571,-0.007257992401719093,0.0034696869552135468,0.034449465572834015,0
512,1549653346689461,0.045962803065776825,0.0661400705575943,0.7523372173309326,0.004446260631084442,-0.009296363219618796,0.02911377511918545,0
513,1549653346739461,0.04941001534461975,0.08377742022275925,0.735661506652832,-0.0003425814211368561,0.008791066706180574,0.02058967389166355,0
514,1549653346789461,0.08905293047428131,0.04409337788820267,0.7498797178268433,-0.01948888599872589,0.028464991599321362,0.029620770364999768,1
515,1549653346839461,0.09767095744609833,-0.051650065928697586,0.751459538936615,-0.01841544732451439,0.001326587051153183,0.037051811814308167,1
516,1549653346889461,0.07009327411651611,0.030865365639328964,0.7479488849639893,-0.03595717251300812,-0.008779158815741539,0.03969251736998558,1
517,1549653346939461,0.1643170267343521,0.036744482815265656,0.7519861459732056,-0.015197178348898888,0.03005002439022064,0.017866963520646095,1
518,1549653346989461,0.19476738572120667,-0.0018446451285853984,0.7449647784233093,0.023103365674614903,0.002378981560468673,0.01519879698753357,1
519,1549653347039461,0.3326557874679565,0.05732139199972153,0.7398743033409119,0.026828153058886528,0.01674601994454861,0.02158414758741856,1
520,1549653347089461,0.773898720741272,0.0661400705575943,0.7337306141853333,0.013525339774787426,0.043883759528398514,0.02743738517165184,1
521,1549653347139461,0.9474083185195924,0.09112631529569626,0.7381189465522766,-0.0045664869248867035,0.061975583434104926,0.005620772019028664,1
522,1549653347189461,0.7595353126525879,0.07054940611124039,0.7412785887718201,0.00022252649068832403,0.028452496975660324,-0.0002324674278497696,1
523,1549653347239461,0.5199542045593262,0.09259609133005142,0.7414541244506836,-0.010419724509119987,-0.009859608486294743,-0.008214155212044716,1
524,1549653347289461,0.21430157124996185,-0.01660180650651455,0.7486509680747986,-0.02265831455588341,-0.02475875802338124,-0.007149929180741309,1
525,1549653347339461,0.06549699604511261,0.042623598128557205,0.7500552535057068,-0.029043663293123245,-0.009327495470643044,-0.023113304749131203,1
526,1549653347389461,0.04366466403007506,0.01910713128745556,0.7505818605422974,0.014582270756363869,-0.019959758967161186,-0.003955276682972908,1
527,1549653347439461,0.05400629341602325,0.0235164687037468,0.7453158497810364,0.03957176208496094,0.0013240780681371687,-0.018313156440854083,1
528,1549653347489461,0.12409957498311995,0.05585161224007607,0.7537414431571959,0.014555193483829497,0.0061100348830223075,-0.020963231101632118,1
529,1549653347539461,0.1597207486629486,0.1014147698879242,0.740927517414093,0.01401606947183609,-0.01888980716466904,-0.009252127259969713,1
530,1549653347589461,0.12122689932584765,0.16020594537258148,0.7468956708908081,0.015604601241648197,-0.01568927988409996,-0.03903090208768845,1
531,1549653347639461,0.09250014275312424,0.09553565084934236,0.7532148957252502,-0.004081521183252336,-0.0002578888088464737,-0.007100597023963928,0
532,1549653347689461,0.04768640920519829,0.03968404233455658,0.7463690638542175,0.00815298780798912,-0.003980685025453568,-0.014011049643158913,0
533,1549653347739461,0.05400629341602325,-0.011067871004343031,0.7577787637710571,0.01293553039431572,0.004530848935246468,-0.0241091288626194,0
534,1549653347789461,0.02355593629181385,0.03968404233455658,0.7519861459732056,-0.004090026021003722,0.0013375040143728256,-0.01931045576930046,0
535,1549653347839461,0.07009327411651611,0.06760984659194946,0.7437360286712646,-0.03653062134981155,-0.008236400783061981,-0.02515111304819584,0
536,1549653347889461,0.12639771401882172,0.008818675763905048,0.7656777501106262,-0.029598347842693325,-0.012487053871154785,-0.011310527101159096,0
537,1549653347939461,0.01838512159883976,0.11317300796508788,0.7365391850471497,-0.02640567347407341,-0.05239549279212952,-0.02354911528527737,0
538,1549653347989461,0.08790386468172072,0.09994499385356903,0.7460179924964905,-0.02266954630613327,-0.006630498915910721,-0.021409956738352776,0
539,1549653348039461,0.1223759651184082,0.010288454592227936,0.7605872750282288,-0.0008525047451257706,-0.009818263351917269,-0.018208174034953117,0
540,1549653348089461,0.05285722389817238,-0.10145548731088637,0.7323263883590698,0.006597071886062622,-0.03589177876710892,-0.016079721972346306,0
541,1549653348139461,0.12122689932584765,0.03968404233455658,0.7563744783401489,-0.007766081020236015,-0.011940738186240194,-0.03840923309326172,0
542,1549653348189461,0.08560572564601898,0.06173073127865791,0.7523372173309326,0.0007473453879356384,-0.016189539805054658,-0.03360341116786003,0
543,1549653348239461,0.04653733968734741,0.0235164687037468,0.7426828742027283,0.01297944039106369,-0.02894576080143452,-0.027736296877264977,0
544,1549653348289461,0.103416308760643,0.005879117175936699,0.7490020394325256,0.01669587567448616,-0.0007434245198965073,-0.017617348581552502,0
545,1549653348339461,0.08043491095304489,0.16608506441116333,0.7444381713867188,0.003923211246728897,-0.00021120533347129824,-0.055901482701301575,0
546,1549653348389461,0.07928583770990373,0.047032937407493584,0.7493531107902527,-0.0045882947742939,-0.0007429458200931549,-0.00800735130906105,0
547,1549653348439461,0.09307467937469482,0.05732139199972153,0.7533903717994691,0.007646467536687852,0.0045758914202451715,-0.0266179759055376,0
548,1549653348489461,0.07296594977378845,0.0661400705575943,0.7384700179100037,-0.013099368661642076,-0.0012767091393470766,-0.020222507417202,0
549,1549653348539461,0.12927038967609406,0.047032937407493584,0.751459538936615,-0.014688359573483469,0.019465943798422813,-0.022871626541018486,0
550,1549653348589461,0.10916166007518767,-0.027669677510857586,0.7451403141021729,0.018825314939022064,-0.005008729174733162,-0.01062772236764431,0
551,1549653348639461,0.09192560613155364,0.09994499385356903,0.7565500140190125,0.021475134417414662,0.013608402572572231,-0.04997904971241951,0
552,1549653348689461,0.06319885700941086,0.05585161224007607,0.7475978136062622,-0.013105625286698341,0.009878672659397124,-0.023893581703305244,0
553,1549653348739461,0.06549699604511261,0.0543818324804306,0.7428584098815918,0.0012607816606760025,0.01572404429316521,-0.03026379458606243,0
554,1549653348789461,0.08043491095304489,0.12640102207660675,0.7569010853767395,-0.0013990812003612518,0.014120643958449362,-0.03450343385338783,0
555,1549653348839461,0.0706678107380867,0.013228013180196284,0.7454913854598999,0.011365934275090694,-0.00024627149105072016,-0.0403364896774292,0
556,1549653348889461,0.10571444779634476,0.12199167907238008,0.7535659074783325,-0.021614231169223785,0.009327088482677937,-0.026488317176699642,0
557,1549653348939461,0.09479828178882599,0.13374991714954376,0.7488265037536621,-0.006179874762892723,0.0040039606392383575,-0.02594322524964809,0
558,1549653348989461,0.09250014275312424,0.0778983011841774,0.7432094216346741,0.0071193771436810485,-0.0007846597582101822,-0.02912133187055588,0
559,1549653349039461,0.07411502301692963,0.09112631529569626,0.7465445995330809,0.0012655053287744526,0.009852662682533264,-0.03282969444990158,0
560,1549653349089461,0.09020200371742247,-0.003689290257170797,0.7553212642669678,-0.0040535908192396155,0.022080205380916595,-0.01685788668692112,0
561,1549653349139461,0.10973619669675827,0.035274703055620193,0.7451403141021729,0.008712751790881157,0.003986384719610214,-0.026954539120197296,0
562,1549653349189461,0.08388211578130722,0.0014697792939841747,0.751810610294342,-0.0029922276735305786,0.006111778318881989,-0.024281831458210945,0
563,1549653349239461,0.06262432038784027,0.07054940611124039,0.7463690638542175,-0.011500274762511252,0.001853950321674347,-0.02373784407973289,0
564,1549653349289461,0.05860257521271705,0.08083786070346832,0.7519861459732056,0.0012697912752628324,0.01834026351571083,-0.03702213615179062,0
565,1549653349339461,0.0850311890244484,0.10288454592227936,0.7481244206428528,-0.007772233337163925,0.010353395715355871,-0.014666073024272919,0
566,1549653349389461,0.07354048639535904,0.09994499385356903,0.7439115643501282,-0.011491274461150171,0.00024313665926456451,-0.02795490249991417,0
567,1549653349439461,0.07296594977378845,-0.014757161028683187,0.7630447745323181,-0.007762601599097252,0.01938948966562748,-0.013581069186329842,0
568,1549653349489461,0.058028038591146476,0.10288454592227936,0.7500552535057068,-0.02956442721188068,0.0012970138341188429,-0.02367936260998249,0
569,1549653349539461,0.07124234735965729,0.008818675763905048,0.7440871000289917,-0.013062404468655586,-0.017850108444690704,-0.02047644555568695,0
570,1549653349589461,0.08847840130329132,0.1866619735956192,0.7665554285049438,-0.015183256939053537,0.012474067509174349,-0.02099805511534214,0
571,1549653349639461,0.053431760519742966,0.02204668894410133,0.7451403141021729,0.018862508237361908,-0.02582511678338051,-0.006095852702856064,0
572,1549653349689461,0.09307467937469482,0.041153818368911736,0.7526882886886597,0.02523523569107056,-0.0061338841915130615,-0.04279021546244621,0
573,1549653349739461,0.039642918854951865,0.08524719625711441,0.7475978136062622,0.0034169107675552373,0.0013150330632925036,-0.0448962077498436,0
574,1549653349789461,0.028726752847433087,0.06173073127865791,0.7468956708908081,-0.006689880043268204,0.005569146946072578,-0.021472511813044548,0
575,1549653349839461,0.07756223529577255,0.035274703055620193,0.7521616816520691,0.006077781319618225,0.015671446919441227,-0.017207004129886627,0
576,1549653349889461,0.053431760519742966,-0.04058219492435455,0.7428584098815918,0.024689368903636932,0.002899292856454849,-0.03102640621364117,0
577,1549653349939461,0.06722059845924377,0.011758234351873398,0.7463690638542175,0.01031716912984848,0.009811848402023315,-0.03367012739181518,0
578,1549653349989461,0.06319885700941086,0.12640102207660675,0.7388210892677307,-0.008302615955471992,0.010870635509490969,-0.028334826231002808,0
579,1549653350039461,0.08158397674560547,0.024986248463392258,0.7563744783401489,-0.009362159296870232,0.00873781368136406,-0.018747420981526368,0
580,1549653350089461,0.07296594977378845,0.0,0.7472467422485352,-0.01201670989394188,0.0007557477802038193,-0.02990682609379292,0
581,1549653350139461,0.06664606928825377,0.02204668894410133,0.7553212642669678,-0.009883318096399307,-0.0003083236515522003,-0.02297786623239517,0
582,1549653350189461,0.06836967170238495,0.02792580612003804,0.7526882886886597,0.010331790894269943,0.017242765054106712,-0.02934853732585907,0
583,1549653350239461,0.059751644730567925,0.04850271716713905,0.7554967999458313,0.00022154301404953003,-0.0019123293459415442,-0.034652329981327064,0
584,1549653350289461,0.0706678107380867,-0.003689290257170797,0.7565500140190125,-0.013074731454253195,-0.011484609916806221,-0.02878468856215477,0
585,1549653350339461,0.04021745547652245,0.09112631529569626,0.7502307891845703,-0.00030387751758098597,-0.014138102531433104,-0.039939071983098984,0
586,1549653350389461,0.0850311890244484,0.04850271716713905,0.7491775751113892,0.020970134064555168,-0.008280720561742783,-0.02396370843052864,0
587,1549653350439461,0.08675479143857956,0.10729388892650604,0.7482998967170715,0.011918257921934128,-0.02742305584251881,-0.04416189342737198,0
588,1549653350489461,0.0563044361770153,0.11170322448015213,0.7481244206428528,-0.017339257523417473,-0.02421826310455799,-0.029779957607388493,0
589,1549653350539461,0.07411502301692963,-0.0258250329643488,0.7468956708908081,0.0023477319628000264,-0.010909991338849071,-0.016468904912471768,0
590,1549653350589461,0.08215851336717606,0.049972496926784515,0.7416296601295471,0.008196869865059853,-0.011436384171247479,-0.02869313955307007,0
591,1549653350639461,0.10111816972494124,0.05732139199972153,0.7530393600463867,0.0012787673622369766,-0.006112201139330864,-0.01697817072272301,0
592,1549653350689461,0.103416308760643,0.06907962262630463,0.7511084675788879,0.00925582554191351,0.00027301348745822906,-0.017501529306173325,0
593,1549653350739461,0.0936492159962654,0.1513872593641281,0.7439115643501282,-0.014681896194815637,-0.012491438537836077,-0.019088314846158028,0
594,1549653350789461,0.07583862543106079,0.03380492329597473,0.7488265037536621,0.015108849853277206,-0.02259027771651745,-0.005782607942819595,0
595,1549653350839461,0.0660715326666832,0.09553565084934236,0.7547946572303772,0.02148345299065113,-0.02364267595112324,-0.05098666995763779,0
596,1549653350889461,0.07583862543106079,0.09259609133005142,0.7519861459732056,0.004453623667359352,-0.014057617634534836,-0.02011408098042012,0
597,1549653350939461,0.060326181352138526,0.1205219030380249,0.7391721606254578,0.00019662454724311829,-0.02043274417519569,-0.017976636067032814,0
598,1549653350989461,0.10169270634651184,0.024986248463392258,0.7611138820648193,-0.0008671674877405168,0.012551954016089441,-0.0190313421189785,0
599,1549653351039461,0.06951874494552612,0.06173073127865791,0.7442626357078552,-0.018417669460177415,-0.005537103861570357,-0.020085521042346958,0
600,1549653351089461,0.1229505017399788,0.09112631529569626,0.7561989426612854,0.0007380153983831407,0.0072299810126423844,-0.013693317770957949,0
601,1549653351139461,0.07411502301692963,-0.018446451053023345,0.7340816855430603,0.0400942862033844,-0.04170351475477218,-0.0227278620004654,0
602,1549653351189461,0.1361648142337799,0.1793130785226822,0.7411030530929565,-0.031193191185593605,0.008310910314321518,-0.053563591092824936,0
603,1549653351239461,0.11835422366857527,0.07936808466911316,0.7472467422485352,-0.04553744941949845,0.00405198335647583,0.0012433752417564392,0
604,1549653351289461,0.0798603743314743,-0.02029109746217728,0.7454913854598999,-0.0013714227825403216,-0.0002048145979642868,-0.006203096359968185,0
605,1549653351339461,0.07296594977378845,0.06026095151901245,0.7523372173309326,-0.0008388906717300415,0.020005453377962112,-0.02747385390102864,1
606,1549653351389461,0.04194105789065361,-0.003689290257170797,0.7477733492851257,-0.004029549658298492,0.009890368208289143,-0.013100260868668556,1
607,1549653351439461,0.13041946291923526,0.06026095151901245,0.7505818605422974,-0.013600772246718408,0.028500050306320187,-0.02000771835446357,1
608,1549653351489461,0.09767095744609833,0.09259609133005142,0.7495286464691162,-0.0189124383032322,-0.03054915927350521,-0.028507258743047718,1
609,1549653351539461,0.07296594977378845,0.08818675577640532,0.7511084675788879,-0.029008062556385994,-0.023088034242391583,-0.025301927700638768,1
610,1549653351589461,-0.0012770397588610651,-0.027669677510857586,0.7463690638542175,0.002917231060564518,-0.024140181019902236,-0.01890711672604084,1
611,1549653351639461,-0.3997134566307068,0.08377742022275925,0.7467201352119446,0.03484398499131204,-0.021479619666934013,-0.030613591894507405,1
612,1549653351689461,-0.8492314219474792,0.14109881222248075,0.7551457285881042,0.009834693744778631,0.02321783453226089,-0.026888804510235783,1
613,1549653351739461,-1.2246811389923096,0.013228013180196284,0.7532148957252502,-0.0024038944393396373,0.004593895748257637,0.0023773852735757828,1
614,1549653351789461,-0.9296849370002748,0.0543818324804306,0.7632203102111816,0.001320892944931984,-0.0443604588508606,-0.044448524713516235,1
615,1549653351839461,-0.7291896939277649,0.09406587481498717,0.7581298351287842,-0.001338999718427658,-0.04752935841679573,-0.02155689336359501,1
616,1549653351889461,-0.4814440011978149,0.011758234351873398,0.7481244206428528,0.006642689928412437,-0.028373304754495617,0.016755208373069763,1
617,1549653351939461,-0.20049524307250974,0.0970054343342781,0.7488265037536621,-0.008256461471319199,-0.009749367833137512,0.005048731341958046,1
618,1549653351989461,-0.12004173547029495,0.0778983011841774,0.7497041821479797,-0.030589886009693142,0.012061214074492456,0.01408759690821171,1
619,1549653352039461,-0.025540795177221298,0.013228013180196284,0.7544435858726501,-0.016746580600738525,0.01684180274605751,0.019930865615606308,1
620,1549653352089461,0.015512446872889997,0.0661400705575943,0.7444381713867188,0.014108888804912569,0.02108815312385559,0.0034336578100919732,1
621,1549653352139461,0.09307467937469482,0.03968404233455658,0.7525127530097961,0.01144260261207819,0.042883314192295074,0.020451027899980545,1
622,1549653352189461,0.08790386468172072,0.05144227296113968,0.7486509680747986,0.02898781560361385,0.0056326184421777725,0.013526798225939274,1
623,1549653352239461,0.0706678107380867,0.17049439251422882,0.7526882886886597,0.002912844531238079,-0.01883513666689396,0.011392649263143541,1
624,1549653352289461,0.07756223529577255,0.06026095151901245,0.7535659074783325,0.009293545968830584,-0.016166483983397484,0.01830095611512661,1
625,1549653352339461,0.103416308760643,0.09112631529569626,0.7533903717994691,-0.0024117231369018555,-0.020413173362612724,0.028928736224770542,0
626,1549653352389461,0.1367393434047699,0.07054940611124039,0.7579542994499207,-0.0045379027724266035,-0.001256495714187622,0.02944611944258213,0
627,1549653352439461,0.1229505017399788,0.0,0.7414541244506836,0.03960762545466423,-0.03954881429672241,0.0028390735387802124,0
628,1549653352489461,0.08847840130329132,0.14256858825683594,0.7432094216346741,0.03799228370189667,-0.002831632271409035,0.016133815050125122,0
629,1549653352539461,0.0988200306892395,0.14550815522670746,0.7597095966339111,-0.02850752510130405,0.04024934768676758,0.040058840066194534,0
630,1549653352589461,0.07583862543106079,0.014697792939841747,0.7411030530929565,-0.009878646582365036,-0.014550965279340744,0.040038809180259705,0
631,1549653352639461,0.12409957498311995,0.12199167907238008,0.7511084675788879,0.019909698516130447,0.0003480147570371628,0.011830927804112434,0
632,1549653352689461,0.14305922389030454,0.036744482815265656,0.7521616816520691,0.018836049363017082,0.005134459584951401,0.035226255655288696,0
633,1549653352739461,0.08215851336717606,0.04850271716713905,0.7493531107902527,-0.014679698273539543,0.0008771196007728577,0.03786787763237953,0
634,1549653352789461,0.058028038591146476,0.049972496926784515,0.7451403141021729,0.008728889748454094,0.012577302753925323,0.0213617030531168,0
635,1549653352839461,0.0988200306892395,0.11611256003379825,0.7477733492851257,-0.015208564698696138,0.01842132583260536,0.03198795020580292,0
636,1549653352889461,0.09652189165353776,0.0235164687037468,0.7470712065696716,-0.025306046009063717,0.02745350636541844,0.0394178107380867,0
637,1549653352939461,0.11548154801130295,0.03821426257491112,0.7484754323959351,0.00821293517947197,0.014675464481115341,0.01333762239664793,0
638,1549653352989461,0.09307467937469482,0.09994499385356903,0.7493531107902527,0.003422209993004799,-0.01086050271987915,0.019713111221790317,0
639,1549653353039461,0.06492245942354202,0.04850271716713905,0.7423318028450012,0.003952346742153168,0.0061640143394470215,0.03140387684106827,0
640,1549653353089461,0.11145979911088943,0.18372240662574768,0.7523372173309326,-0.0013680960983037944,0.022116325795650482,0.023410480469465256,0
641,1549653353139461,0.07468955963850021,0.047032937407493584,0.7490020394325256,0.002355514094233513,0.014127571135759354,0.044140785932540894,0
642,1549653353189461,0.07239141315221786,0.1087636649608612,0.7472467422485352,-0.002432283014059067,0.022098205983638763,0.029227016493678093,0
643,1549653353239461,0.09135107696056366,0.08671697974205017,0.7497041821479797,-0.025832312181591988,0.023150848224759102,0.03559456020593643,0
644,1549653353289461,0.09996909648180008,-0.02029109746217728,0.7583053708076477,-0.007204769179224969,0.01941634714603424,0.029194604605436325,0
645,1549653353339461,0.08445665240287781,0.04409337788820267,0.7539169788360596,0.011413461528718472,0.016215559095144272,0.01801123097538948,0
646,1549653353389461,0.08215851336717606,0.10435432940721512,0.7435604929924011,0.0007708258926868439,0.002379443496465683,0.022256996482610703,0
647,1549653353439461,0.11548154801130295,-0.03504825755953789,0.7604117393493652,0.00289782602339983,0.027906885370612144,0.029691720381379124,0
648,1549653353489461,0.05860257521271705,0.05585161224007607,0.7488265037536621,-0.005081320181488991,0.0013006068766117096,0.01903994381427765,0
649,1549653353539461,0.04136652499437332,0.10729388892650604,0.7400498390197754,-0.004015086218714714,-0.011996204033493996,0.01849857717752457,0
650,1549653353589461,0.10169270634651184,0.05585161224007607,0.7584808468818665,0.008751237764954567,0.014070270583033562,0.020084867253899567,0
651,1549653353639461,0.07239141315221786,0.05879117175936699,0.7412785887718201,0.014065325260162357,-0.01891124807298184,0.024329597130417824,0
652,1549653353689461,0.12065236270427705,0.08818675577640532,0.7595340609550476,0.008207982406020164,-0.0008190106600522995,0.02112635411322117,0
653,1549653353739461,0.08445665240287781,0.16608506441116333,0.7411030530929565,-0.0013693589717149734,-0.021560613065958027,0.018988404422998432,0
654,1549653353789461,0.07124234735965729,0.07348896563053131,0.7463690638542175,-0.012005602940917015,-0.01144474744796753,0.03387061133980751,0
655,1549653353839461,0.08330757915973662,0.026456026360392567,0.751810610294342,-0.014658834785223009,-0.006120560690760613,0.030130751430988312,0
656,1549653353889461,0.06951874494552612,-0.029514322057366368,0.7467201352119446,0.005026816390454769,-0.01781812496483326,0.030115686357021325,0
657,1549653353939461,0.09020200371742247,0.10582410544157027,0.7393476963043213,0.006087996065616608,0.0024009514600038533,0.015208925120532513,0
658,1549653353989461,0.09537281841039658,0.01910713128745556,0.7530393600463867,-0.0231666062027216,-0.007173486053943634,0.05136688053607941,0
659,1549653354039461,0.1131834089756012,-0.02029109746217728,0.7698905467987059,-0.036983028054237366,0.016231346875429153,0.03698134422302246,0
660,1549653354089461,0.015512446872889997,0.05732139199972153,0.7384700179100037,0.002925411798059941,-0.000264141708612442,0.02740331739187241,0
661,1549653354139461,0.10628898441791534,0.09553565084934236,0.7579542994499207,0.015156418085098268,0.03164678066968918,0.022602997720241547,0
662,1549653354189461,0.10686352103948593,0.007348896469920874,0.767257571220398,0.03961377590894699,-0.0034709107130765915,0.03695154935121536,0
663,1549653354239461,0.05113362148404122,0.19548064470291132,0.7453158497810364,0.010342413559556007,-0.0018736366182565687,0.017786601558327675,0
664,1549653354289461,0.08215851336717606,0.03380492329597473,0.7547946572303772,0.006082469597458839,-0.002404546365141869,0.032669410109519965,0
665,1549653354339461,0.08790386468172072,0.09553565084934236,0.7521616816520691,-0.00030273012816905964,-0.010381042957305908,0.03212122991681099,0
666,1549653354389461,0.08675479143857956,0.06907962262630463,0.7467201352119446,0.02043943479657173,-0.011439543217420578,0.022531932219862938,0
667,1549653354439461,0.06492245942354202,0.12346146255731585,0.7458424568176271,-0.0024401843547821045,0.0023941844701766968,0.0374123677611351,0
668,1549653354489461,0.07813676446676254,0.013228013180196284,0.7511084675788879,-0.002970810979604721,-0.010903174057602879,0.02941596508026123,0
669,1549653354539461,0.11720515042543413,0.1014147698879242,0.7628692388534546,0.00873129814863205,-0.011429568752646444,0.007063703611493111,0
670,1549653354589461,0.06262432038784027,0.11170322448015213,0.7384700179100037,-0.004037383943796158,-0.03429325670003891,0.02301556803286076,0
671,1549653354639461,0.14248469471931458,0.010288454592227936,0.7658532857894897,0.003944303840398789,-0.000238051638007164,0.04057528078556062,0
672,1549653354689461,0.08273304998874664,-0.023980386555194855,0.7358370423316956,-0.008290138095617294,-0.0262984111905098,0.03257729858160019,0
673,1549653354739461,0.0850311890244484,0.0235164687037468,0.7490020394325256,0.01086048036813736,-0.0012884773313999176,0.02086038701236248,0
674,1549653354789461,0.1039908453822136,0.0778983011841774,0.7454913854598999,0.004472892731428146,0.00030770711600780487,0.01553149148821831,0
675,1549653354839461,0.1275467872619629,0.03233514353632927,0.7540925145149231,-0.014675820246338844,-0.0023516789078712463,0.03679758310317993,0
676,1549653354889461,0.103416308760643,0.017637351527810097,0.7482998967170715,-0.0008404720574617388,-0.010328201577067377,0.03890657424926758,0
677,1549653354939461,0.10169270634651184,0.06907962262630463,0.7490020394325256,-0.0029674377292394642,-0.016705192625522614,0.020804340019822117,0
678,1549653354989461,0.11203433573246002,0.11317300796508788,0.759007453918457,-0.008816264569759369,-0.006059909239411354,0.020262090489268303,0
679,1549653355039461,0.09594735503196716,0.011758234351873398,0.7430338859558105,-0.010407395660877228,0.015216980129480362,0.021315652877092358,0
680,1549653355089461,0.09192560613155364,0.04409337788820267,0.7468956708908081,0.00023473799228668213,-0.00553264282643795,0.021836839616298682,0
681,1549653355139461,0.08388211578130722,0.008818675763905048,0.746193528175354,0.02416771277785301,-0.01616680435836315,0.0069342199712991714,0
682,1549653355189461,0.09479828178882599,0.11464278399944305,0.7340816855430603,0.003945460543036461,-0.009776564314961432,0.004271520301699638,0
683,1549653355239461,0.1551244705915451,-0.04058219492435455,0.7630447745323181,-0.017871154472231858,0.011507938615977764,0.03566616028547287,0
684,1549653355289461,0.10054363310337068,-0.029514322057366368,0.7354859709739685,-0.007757134735584259,-0.02200414426624775,0.021820319816470143,0
685,1549653355339461,0.10169270634651184,0.08377742022275925,0.7440871000289917,0.0012881327420473099,-0.02039760164916516,0.03138264641165733,0
686,1549653355389461,0.10628898441791534,0.04556315764784813,0.7551457285881042,0.015115497633814812,0.01896923594176769,0.0350898802280426,0
687,1549653355439461,0.09594735503196716,0.10435432940721512,0.7479488849639893,-0.0008474551141262052,0.010450206696987152,0.032944951206445694,0
688,1549653355489461,0.13444119691848755,0.07495874166488647,0.7526882886886597,-0.04339475184679032,0.0067220572382211685,0.04090617597103119,0
689,1549653355539461,0.09996909648180008,0.0014697792939841747,0.7495286464691162,-0.005611952394247055,0.012569006532430649,0.03875833749771118,0
690,1549653355589461,0.10571444779634476,0.0543818324804306,0.7435604929924011,0.02736533619463444,0.020540418103337288,0.01852879300713539,1
691,1549653355639461,0.09824549406766893,0.016167571768164638,0.7463690638542175,0.04011596739292145,0.027444152161479,0.019583221524953842,1
692,1549653355689461,0.10801258683204652,0.03821426257491112,0.7486509680747986,0.028395287692546844,0.03859920799732208,0.01904158294200897,1
693,1549653355739461,0.13444119691848755,0.029395585879683495,0.7556723356246948,0.026785550639033318,0.033261440694332116,0.030200839042663574,1
694,1549653355789461,0.16374248266220093,0.18372240662574768,0.7563744783401489,0.009221223182976246,0.024735266342759132,0.01050741970539093,1
695,1549653355839461,0.18959656357765198,0.0778983011841774,0.7432094216346741,0.01878985017538071,0.006108272820711136,0.01050216518342495,1
696,1549653355889461,0.4372211694717407,0.13374991714954376,0.7419807314872742,0.007083374075591564,0.006108272820711136,0.025401316583156586,1
697,1549653355939461,0.9405139088630676,-0.0018446451285853984,0.7328529357910156,0.004422811791300775,0.030053338035941124,0.0280618779361248,1
698,1549653355989461,0.952004611492157,0.07201918214559555,0.7293422818183899,-0.002493403851985932,0.0640764832496643,0.0030510630458593373,1
699,1549653356039461,0.7400011420249939,0.10288454592227936,0.7442626357078552,-0.006750304251909256,0.03427818417549133,0.002518950030207634,1
700,1549653356089461,0.4435410499572754,-0.051650065928697586,0.7435604929924011,0.009213072247803213,-0.008822932839393616,-0.0038664005696773533,1
701,1549653356139461,0.18442575633525848,0.14550815522670746,0.7486509680747986,-0.01898889429867268,-0.004033919423818588,-0.02142611518502236,1
702,1549653356189461,0.04941001534461975,0.06026095151901245,0.7540925145149231,-0.006218191236257553,-0.014144059270620346,-0.011315975338220595,1
703,1549653356239461,0.02355593629181385,0.11023344844579697,0.7511084675788879,-0.02004308998584748,-0.02317837812006473,-0.024074632674455643,1
704,1549653356289461,0.06951874494552612,0.08230763673782349,0.7463690638542175,-0.024287840351462364,-0.025826020166277885,-0.0091708954423666,1
705,1549653356339461,0.09709642082452774,0.10288454592227936,0.7516350746154785,-0.035444475710392,-0.023685723543167114,-0.02724908851087093,1
706,1549653356389461,0.15225179493427274,0.04409337788820267,0.746193528175354,-0.03808598220348358,-0.01941910572350025,-0.008088992908596992,1
707,1549653356439461,0.12984491884708405,0.01910713128745556,0.7505818605422974,-0.01732492819428444,-0.01940939575433731,-0.0096804890781641,1
708,1549653356489461,0.10571444779634476,0.14550815522670746,0.7532148957252502,0.0039575938135385505,-0.0124856885522604,-0.013930417597293855,0
709,1549653356539461,0.09594735503196716,0.08230763673782349,0.7467201352119446,0.03693009912967682,-0.011947598308324814,-0.031474389135837555,0
710,1549653356589461,0.09594735503196716,0.07348896563053131,0.7498797178268433,0.0044689979404211036,-0.023642249405384064,-0.03411788493394852,0
711,1549653356639461,0.059751644730567925,0.03380492329597473,0.7465445995330809,-0.014679711312055588,-0.023630429059267044,-0.02240020036697388,0
712,1549653356689461,0.07468955963850021,0.03380492329597473,0.7502307891845703,-0.0013762079179286955,0.01307879574596882,-0.035153321921825416,0
713,1549653356739461,0.10169270634651184,0.02204668894410133,0.7595340609550476,0.011920642107725143,0.010413022711873056,-0.027158042415976524,0
714,1549653356789461,0.05515536665916443,0.008818675763905048,0.7454913854598999,0.01829683966934681,-0.008738657459616661,-0.027676310390234,0
715,1549653356839461,0.0614752508699894,0.11611256003379825,0.7540925145149231,-0.0019224751740694046,0.01041218638420105,-0.03617201745510101,0
716,1549653356889461,0.09824549406766893,0.14550815522670746,0.7498797178268433,-0.022131681442260742,0.01412990503013134,-0.022325919941067696,0
717,1549653356939461,0.10686352103948593,0.10582410544157027,0.7433849573135376,-0.009356299415230751,0.0018903706222772605,-0.02337845042347908,0
718,1549653356989461,0.12639771401882172,0.05144227296113968,0.7526882886886597,0.011390392668545246,-0.008747505024075508,-0.02762153372168541,0
719,1549653357039461,0.10054363310337068,0.12346146255731585,0.7446137070655823,0.0018114596605300905,0.0104033425450325,-0.033989883959293365,0
720,1549653357089461,0.08158397674560547,-0.03504825755953789,0.7468956708908081,0.009788250550627708,0.009334447793662548,-0.02705888077616692,0
721,1549653357139461,0.06549699604511261,0.07054940611124039,0.7546191215515137,0.0012738127261400225,0.009861625730991364,-0.047255516052246094,0
722,1549653357189461,0.017236052080988884,0.07642852514982224,0.7421562671661377,0.014037491753697395,0.0008153058588504791,-0.04244527220726013,0
723,1549653357239461,0.10801258683204652,0.14550815522670746,0.7553212642669678,-0.0003293827176094055,0.011451826430857182,-0.04136035591363907,0
724,1549653357289461,0.09250014275312424,0.08230763673782349,0.7456669211387634,-0.014157228171825409,0.00027732551097869884,-0.027511667460203167,0
725,1549653357339461,0.1085871234536171,0.11023344844579697,0.7460179924964905,0.001273399218916893,0.01995550841093064,-0.028561605140566826,0
726,1549653357389461,0.07411502301692963,0.05879117175936699,0.7481244206428528,0.009250461123883724,0.01143598649650812,-0.04077979177236557,0
727,1549653357439461,0.07698769867420198,0.09847521036863327,0.7560234069824219,-0.002454787492752075,0.02472642995417118,-0.03490909188985825,0
728,1549653357489461,0.08043491095304489,0.016167571768164638,0.7400498390197754,-0.002453560009598732,0.0108860582113266,-0.01893624104559421,0
729,1549653357539461,0.09479828178882599,0.016167571768164638,0.7558478713035583,-0.0035160258412361145,0.02258123643696308,-0.010949075222015379,0
730,1549653357589461,0.07296594977378845,0.05732139199972153,0.7465445995330809,0.0071226609870791435,-0.005617918446660042,-0.027430841699242592,0
731,1549653357639461,0.05228269100189209,0.10288454592227936,0.7370657920837402,-0.010431833565235138,0.005021821707487106,-0.04071328788995743,0
732,1549653357689461,0.08560572564601898,0.016167571768164638,0.7632203102111816,-0.009894773364067078,0.02097470499575138,-0.009313993155956268,0
733,1549653357739461,0.05285722389817238,0.11611256003379825,0.7479488849639893,0.0007471051067113876,0.0023495908826589584,-0.027923960238695145,0
734,1549653357789461,0.0517081543803215,0.008818675763905048,0.7574276924133301,-0.0013806559145450592,0.0060713402926921844,-0.019932301715016358,0
735,1549653357839461,0.05572989955544472,0.11317300796508788,0.7502307891845703,-0.03701367974281311,0.0076638441532850266,-0.02896372601389885,0
736,1549653357889461,0.07124234735965729,0.02792580612003804,0.7516350746154785,-0.024762701243162155,-0.013082001358270643,-0.008207231760025023,0
737,1549653357939461,0.04883547872304917,0.1675548404455185,0.7528638243675232,-0.013049697503447531,-0.01201176643371582,-0.030540678650140762,0
738,1549653357989461,0.05745350569486616,-0.0830090343952179,0.7412785887718201,0.023654235526919358,-0.02104715071618557,-0.012974476441740991,0
739,1549653358039461,0.11548154801130295,0.024986248463392258,0.7537414431571959,0.022578714415431026,0.0135333938524127,-0.04647431522607803,0
740,1549653358089461,0.09709642082452774,0.052912052720785134,0.7477733492851257,0.006080184131860733,-0.008810926228761673,-0.031027529388666163,0
741,1549653358139461,0.04883547872304917,0.03821426257491112,0.7453158497810364,-0.0008368603885173798,0.002362256869673729,-0.03154386207461357,0
742,1549653358189461,0.05055908486247064,0.07201918214559555,0.751459538936615,0.009800488129258156,0.003956614062190056,-0.022486699745059013,0
743,1549653358239461,0.059751644730567925,0.07936808466911316,0.7486509680747986,0.0066045094281435,0.017250798642635345,-0.03630346804857254,0
744,1549653358289461,0.06664606928825377,0.04409337788820267,0.7577787637710571,0.006069360300898552,0.017242172732949257,-0.020329920575022697,0
745,1549653358339461,0.07354048639535904,-0.11252335458993913,0.7474222779273987,0.01138478983193636,0.004469236359000206,-0.02351083420217037,0
746,1549653358389461,0.09077654033899307,0.11464278399944305,0.7523372173309326,-0.01999984495341777,0.015103932470083237,-0.02828569710254669,0
747,1549653358439461,0.05860257521271705,-0.0258250329643488,0.7479488849639893,-0.005098145455121994,-0.0013908613473176954,-0.03039893880486488,0
748,1549653358489461,0.06319885700941086,0.041153818368911736,0.7493531107902527,0.005541333928704262,0.00446014665067196,-0.03251112625002861,0
749,1549653358539461,0.07009327411651611,0.10582410544157027,0.751459538936615,-0.009353138506412506,-0.004051627591252327,-0.025580868124961853,0
750,1549653358589461,0.08388211578130722,0.1014147698879242,0.7468956708908081,-0.01147584803402424,-0.006176987662911415,-0.023972537368535995,0
751,1549653358639461,0.04653733968734741,0.036744482815265656,0.7460179924964905,0.010867442935705185,-0.014151597395539284,-0.03672486543655396,0
752,1549653358689461,0.06549699604511261,0.1087636649608612,0.7563744783401489,-0.010943697765469551,-0.006698669865727425,-0.0351109653711319,0
753,1549653358739461,0.054580830037593835,0.0778983011841774,0.7470712065696716,-0.0024286825209856033,-0.017332250252366066,-0.019669860601425167,0
754,1549653358789461,0.07641316205263138,0.05732139199972153,0.746193528175354,0.02576039731502533,-0.017323583364486694,-0.03614727035164833,0
755,1549653358839461,0.09709642082452774,0.010288454592227936,0.7511084675788879,0.01883351244032383,-0.011464608833193779,-0.03559735044836998,0
756,1549653358889461,0.0471118725836277,0.07348896563053131,0.7458424568176271,-0.0051089972257614144,-0.02900981158018112,-0.033452164381742484,0
757,1549653358939461,0.08388211578130722,-0.003689290257170797,0.7502307891845703,0.0034031011164188385,-0.0002755969762802124,-0.031839899718761444,0
758,1549653358989461,0.056878969073295586,0.10288454592227936,0.7495286464691162,-0.0019170641899108887,-0.012507928535342216,-0.020655203610658646,0
759,1549653359039461,0.11088526248931883,0.0661400705575943,0.7605872750282288,-0.002979800105094909,0.008240338414907455,-0.013730868697166445,0
760,1549653359089461,0.07411502301692963,0.09553565084934236,0.7542680501937866,-0.01627447083592415,-0.01995164528489113,-0.00893738865852356,0
761,1549653359139461,0.10169270634651184,-0.003689290257170797,0.7493531107902527,0.019367381930351257,-0.023664597421884537,-0.00946476310491562,0
762,1549653359189461,0.09250014275312424,0.05144227296113968,0.7509329319000244,0.033717550337314606,-0.022589070722460747,-0.05466698110103607,0
763,1549653359239461,0.053431760519742966,0.220466896891594,0.7477733492851257,-0.021611342206597328,-0.016727464273571968,-0.023260707035660744,0
764,1549653359289461,0.07411502301692963,0.030865365639328964,0.7530393600463867,-0.018409458920359608,-0.003422938287258148,-0.003038911148905754,0
765,1549653359339461,0.04366466403007506,-0.02029109746217728,0.7525127530097961,-0.003508551046252251,-0.0113989245146513,-0.012078782543540001,0
766,1549653359389461,0.08043491095304489,0.07201918214559555,0.7481244206428528,-0.006697876378893852,-0.0012881439179182053,-0.039728760719299316,0
767,1549653359439461,0.10628898441791534,0.09847521036863327,0.7488265037536621,-0.006694527342915535,0.003499118611216545,-0.024817194789648056,0
768,1549653359489461,0.10054363310337068,-0.01660180650651455,0.7486509680747986,0.030538074672222137,-0.027881572023034096,-0.020550014451146133,0
769,1549653359539461,0.11433247476816175,0.1205219030380249,0.7402253746986389,-0.016811532899737358,-0.003402693197131157,-0.04660021513700485,0
770,1549653359589461,0.11835422366857527,0.005879117175936699,0.7423318028450012,-0.032226674258708954,0.015213634818792343,0.00288480706512928,0
771,1549653359639461,0.14018654823303225,-0.029514322057366368,0.7602362036705017,0.01086900383234024,0.02797034382820129,-0.004562485963106154,0
772,1549653359689461,0.054580830037593835,0.18225263059139246,0.7504063248634338,0.011933228000998495,0.00030049122869968414,-0.04925994202494621,0
773,1549653359739461,0.04366466403007506,0.05879117175936699,0.7477733492851257,-0.021579068154096603,-0.001827044412493705,-0.013601595535874368,0
774,1549653359789461,0.1137579381465912,0.09553565084934236,0.7530393600463867,-0.04124659672379494,0.02529804036021233,-0.009871870279312134,0
775,1549653359839461,0.05515536665916443,0.05879117175936699,0.7456669211387634,-0.02846165746450424,-0.026303719729185104,-0.014653552323579788,0
776,1549653359889461,0.08905293047428131,-0.003689290257170797,0.7535659074783325,-0.0061098746955394745,-0.02309948951005936,-0.01783730275928974,0
777,1549653359939461,0.1039908453822136,-0.051650065928697586,0.7507573962211609,0.032186128199100494,-0.017769474536180496,-0.03857039660215378,0
778,1549653359989461,0.0752640888094902,0.13081035017967224,0.7477733492851257,0.009832480922341348,-0.0028688888996839523,-0.026318643242120743,0
779,1549653360039461,0.09824549406766893,0.017637351527810097,0.7497041821479797,0.019932650029659268,0.008833169937133789,-0.03747425973415375,0
780,1549653360089461,0.11203433573246002,0.09847521036863327,0.7465445995330809,0.018327143043279648,0.005105828866362572,-0.05234722793102264,0
781,1549653360139461,0.07928583770990373,0.047032937407493584,0.7490020394325256,0.025763832032680508,0.01308097317814827,-0.039556734263896935,0
782,1549653360189461,0.10686352103948593,0.05732139199972153,0.7493531107902527,0.006604475900530815,0.023711362853646282,-0.012412788346409798,0
783,1549653360239461,0.09824549406766893,0.03821426257491112,0.7491775751113892,0.009792251512408257,0.027954278513789173,-0.023575356230139732,0
784,1549653360289461,0.11145979911088943,0.047032937407493584,0.759007453918457,0.001809658482670784,0.02208998799324036,-0.02728649415075779,0
785,1549653360339461,0.09996909648180008,0.07642852514982224,0.7407519817352295,-0.007764482870697975,-0.0007904563099145888,-0.029400238767266273,0
786,1549653360389461,0.09996909648180008,0.08377742022275925,0.7525127530097961,0.02255464904010296,0.01782456785440445,-0.04002246633172035,0
787,1549653360439461,0.06951874494552612,0.0014697792939841747,0.7484754323959351,0.02892552874982357,0.014624575152993204,-0.03202475607395172,0
788,1549653360489461,0.07813676446676254,0.11464278399944305,0.7533903717994691,0.000723203644156456,0.02897711843252182,-0.0346679762005806,0
789,1549653360539461,0.045962803065776825,0.04556315764784813,0.7444381713867188,-0.024273943156003952,0.002902152016758919,-0.008058320730924606,0
790,1549653360589461,0.07468955963850021,-0.012912516482174395,0.7528638243675232,-0.002987949177622795,0.0135376313701272,-0.02720076404511929,0
791,1549653360639461,0.0660715326666832,0.14991748332977295,0.7402253746986389,0.0012683160603046415,0.0028939321637153625,-0.05058841034770012,0
792,1549653360689461,0.07871130108833313,0.19254109263420105,0.7444381713867188,-0.0067100152373313895,0.03054850548505783,-0.025566332042217255,1
793,1549653360739461,0.09824549406766893,0.1087636649608612,0.7554967999458313,0.010312426835298538,0.039574619382619865,-0.02289431355893612,1
794,1549653360789461,0.03332303464412688,0.024986248463392258,0.7419807314872742,0.019348662346601486,0.008707735687494278,-0.03777456656098367,1
795,1549653360839461,0.04826094582676888,0.07642852514982224,0.7504063248634338,0.0001925136893987656,0.03104093298316002,-0.03828752785921097,1
796,1549653360889461,0.004021745175123215,0.05732139199972153,0.7547946572303772,0.023593662306666367,0.00815601460635662,-0.030822532251477238,1
797,1549653360939461,-0.17112332582473755,0.14697793126106262,0.7465445995330809,0.032623253762722015,-0.017908541485667232,-0.029743427410721782,1
798,1549653360989461,-0.2873339354991913,0.13815924525260925,0.7637468576431274,-0.005154158920049667,-0.03491867333650589,-0.0350470244884491,1
799,1549653361039461,-0.8313528895378113,0.15726637840270996,0.7458424568176271,-0.059429638087749474,-0.052478387951850884,-0.005780830979347229,1
800,1549653361089461,-1.0203547477722168,0.005879117175936699,0.7597095966339111,-0.031212059780955318,-0.018413975834846497,0.020814383402466767,1
801,1549653361139461,-0.9654420614242554,0.08230763673782349,0.7602362036705017,-0.0008812025189399719,-0.04606078565120697,-0.006852041929960251,1
802,1549653361189461,-0.6666147708892822,0.09112631529569626,0.7509329319000244,0.00018302351236343384,-0.06574895232915877,0.0011296458542346954,1
803,1549653361239461,-0.4316394329071045,0.12934057414531708,0.7516350746154785,0.007628781720995903,-0.004553727805614472,-0.015890005975961685,1
804,1549653361289461,-0.4035445749759674,0.1366894692182541,0.7488265037536621,0.043790526688098914,0.02204087376594544,-0.02173236943781376,1
805,1549653361339461,-0.2375293970108032,0.11758234351873398,0.7569010853767395,0.04057755321264267,0.049685869365930564,0.004870820790529251,1
806,1549653361389461,-0.1596299707889557,0.09994499385356903,0.7467201352119446,0.006519090384244919,0.04115148261189461,0.01656900718808174,1
807,1549653361439461,-0.048527512699365616,0.12787079811096191,0.759007453918457,-0.024863112717866898,0.02730289846658707,0.01975180208683014,1
808,1549653361489461,-0.03064895421266556,0.14109881222248075,0.7456669211387634,-0.02538252808153629,-0.002494156360626221,0.02080561779439449,1
