,timestamp,accel_x,accel_y,accel_z,gyro_roll,gyro_pitch,gyro_yaw,label
0,1549908723215048,0.027003146708011627,0.15873616933822632,0.7535659074783325,0.01934928074479103,-0.015031537041068075,0.04426391795277596,0
1,1549908723265048,0.04768640920519829,0.2777882814407349,0.7576032280921936,-0.01948518678545952,-0.0043870899826288215,0.06711118668317795,0
2,1549908723315048,0.02355593629181385,0.22340644896030426,0.7468956708908081,-0.006711129099130631,-0.012362593784928322,0.09047888219356537,0
3,1549908723365048,0.053431760519742966,0.1910713016986847,0.7560234069824219,0.006588388234376907,0.005726367235183716,0.1212807297706604,0
4,1549908723415048,0.0379193127155304,0.16020594537258148,0.7444381713867188,-0.0013926029205322266,-0.029378363862633705,0.15951304137706754,0
5,1549908723465048,0.0517081543803215,0.19254109263420105,0.7491775751113892,-0.03915300965309143,-0.008621660992503166,0.1844300776720047,0
6,1549908723515048,0.029301287606358525,0.04850271716713905,0.7535659074783325,-0.03806973993778229,-0.0017033480107784273,0.19603848457336426,0
7,1549908723565048,0.043090127408504486,0.07201918214559555,0.7532148957252502,-0.029541160911321637,0.007870741188526155,0.17945322394371033,0
8,1549908723615048,0.06434792280197144,0.1322801411151886,0.7556723356246948,-0.018357615917921063,0.012121578678488731,0.1841501146554947,0
9,1549908723665048,0.02757768332958221,0.09847521036863327,0.7468956708908081,0.019412664696574208,0.002010433003306389,0.1760803461074829,0
10,1549908723715048,0.045388270169496536,0.11905211955308916,0.7528638243675232,0.027912503108382225,0.014241898432373999,0.1733330488204956,0
11,1549908723765048,0.05285722389817238,0.18078285455703733,0.7591829895973206,0.006092841736972332,-0.010762009769678116,0.1828196346759796,0
12,1549908723815048,0.024705007672309875,0.18078285455703733,0.7435604929924011,0.009812721982598305,-0.01979801990091801,0.18964222073554995,0
13,1549908723865048,0.07928583770990373,0.08524719625711441,0.7563744783401489,0.014062587171792984,0.0068042054772377005,0.17625123262405396,0
14,1549908723915048,0.007468955591320991,0.0014697792939841747,0.7414541244506836,0.010332630015909672,-0.03096029721200466,0.19265036284923556,0
15,1549908723965048,0.04481373354792595,0.05144227296113968,0.7505818605422974,0.015114082023501396,0.0036252047866582866,0.18138526380062106,0
16,1549908724015048,0.06377339363098145,0.1087636649608612,0.7498797178268433,0.027338996529579163,0.004687083885073662,0.1738487184047699,0
17,1549908724065048,0.06434792280197144,0.08083786070346832,0.7544435858726501,0.0353030264377594,0.003089200705289841,0.16525225341320038,0
18,1549908724115048,0.013788841664791107,0.16608506441116333,0.7449647784233093,0.007097508758306503,-0.009676659479737282,0.1609148532152176,0
19,1549908724165048,0.02413047291338444,0.07054940611124039,0.7556723356246948,-0.004606664180755615,0.011602038517594336,0.18370378017425534,0
20,1549908724215048,0.00459628039970994,-0.07378580421209335,0.7572521567344666,0.014542113058269026,0.0030866935849189763,0.17297500371932986,0
21,1549908724265048,0.002872675191611052,0.09259609133005142,0.7484754323959351,-0.00567532517015934,-0.008615471422672272,0.17235666513442993,0
22,1549908724315048,0.07124234735965729,0.12640102207660675,0.7537414431571959,0.0028370562940835953,0.0004302244633436203,0.17705711722373962,0
23,1549908724365048,0.059751644730567925,0.0970054343342781,0.751810610294342,0.021982111036777496,0.002557395026087761,0.16633164882659912,0
24,1549908724415048,0.03217396140098572,0.047032937407493584,0.7526882886886597,0.020907428115606308,-0.004889734089374542,0.1678440272808075,0
25,1549908724465048,0.030450357124209407,-0.06825187057256699,0.7479488849639893,0.013451121747493744,-0.009142061695456505,0.17626965045928955,0
26,1549908724515048,0.043664664030075066,0.10435432940721512,0.7563744783401489,-0.007829463109374045,0.011604521423578262,0.1666082888841629,0
27,1549908724565048,0.05285722389817238,0.12640102207660675,0.746193528175354,-0.0030389297753572464,-0.019780226051807404,0.17609821259975433,0
28,1549908724615048,0.04653733968734741,0.06760984659194946,0.7497041821479797,0.003876593895256519,-0.01285632885992527,0.17494647204875946,0
29,1549908724665048,0.0471118725836277,0.06467028707265854,0.7600606679916382,-0.01527181640267372,0.022251967340707782,0.16900868713855746,0
30,1549908724715048,0.02413047291338444,0.008818675763905048,0.7516350746154785,0.0012230612337589266,-0.011797333136200905,0.17902927100658414,0
31,1549908724765048,0.035621173679828644,0.036744482815265656,0.7470712065696716,0.002286141738295555,-0.007536664605140686,0.17521682381629944,0
32,1549908724815048,0.01034163124859333,0.07348896563053131,0.7535659074783325,-0.01739332266151905,-0.0054055098444223395,0.16874706745147705,0
33,1549908724865048,0.03217396140098572,0.0970054343342781,0.7500552535057068,-0.008875081315636635,-0.0006161890923976897,0.18408623337745667,0
34,1549908724915048,0.02585407719016075,0.10288454592227936,0.7453158497810364,0.013466909527778624,-0.020294200628995892,0.18080312013626101,0
35,1549908724965048,0.058028038591146476,0.1087636649608612,0.7597095966339111,0.019310487434268,0.01109488680958748,0.17752163112163544,0
36,1549908725015048,0.02240686677396297,0.0661400705575943,0.7470712065696716,0.03791546076536178,-0.006461596116423607,0.17583733797073364,0
37,1549908725065048,0.03849384933710098,0.0970054343342781,0.7504063248634338,0.025132186710834503,-0.0053946711122989655,0.1741538792848587,0
38,1549908725115048,0.01034163124859333,0.1014147698879242,0.7497041821479797,0.016078229993581772,-0.00751936063170433,0.1671527922153473,0
39,1549908725165048,0.03677024319767952,0.09994499385356903,0.7558478713035583,0.0017103366553783415,0.00843979325145483,0.175578773021698,0
40,1549908725215048,0.035621173679828644,0.21311800181865687,0.746193528175354,0.012878255918622015,-0.01656121015548706,0.1691088080406189,0
41,1549908725265048,0.03389756754040718,0.23957401514053345,0.7490020394325256,0.009680738672614098,-0.017616624012589455,0.21529491245746613,0
42,1549908725315048,0.03217396140098572,0.08524719625711441,0.7463690638542175,0.0282905250787735,-0.02452182210981846,0.2268878817558289,0
43,1549908725365048,0.04653733968734741,0.22487622499465945,0.7572521567344666,0.013384677469730377,0.004210151731967926,0.231029212474823,0
44,1549908725415048,0.045962803065776825,0.14109881222248075,0.7579542994499207,0.023494815453886986,0.0031459257006645203,0.24433203041553495,0
45,1549908725465048,0.035046637058258064,0.2028295397758484,0.7382944822311401,0.01869644969701767,-0.02610720321536064,0.2245315313339233,0
46,1549908725515048,0.0563044361770153,0.08818675577640532,0.7598851323127747,0.011246874928474426,-0.0005658008158206941,0.24581603705883026,0
47,1549908725565048,0.005170815624296665,0.20429931581020355,0.7454913854598999,0.019760675728321075,-0.010675940662622452,0.2351737916469574,0
48,1549908725615048,0.02068326249718666,0.2439833581447601,0.7540925145149231,0.025069259107112885,0.0015618689358234403,0.22761034965515134,0
49,1549908725665048,0.040791988372802734,0.09847521036863327,0.7556723356246948,0.027197711169719696,-0.008016157895326614,0.25794076919555664,0
50,1549908725715048,0.040791988372802734,0.07348896563053131,0.7511084675788879,0.03305094689130783,-0.021851083263754845,0.2542159855365753,0
51,1549908725765048,0.03677024319767952,0.06907962262630463,0.757076621055603,0.01761968433856964,-0.0016308072954416275,0.24250949919223785,0
52,1549908725815048,0.04423920065164566,0.12199167907238008,0.7453158497810364,0.004848983138799667,-0.00748404487967491,0.23825259506702426,0
53,1549908725865048,0.0614752508699894,0.16167572140693665,0.7470712065696716,-0.003132704645395279,-0.01652995683252811,0.2542159855365753,0
54,1549908725915048,0.07411502301692963,0.0543818324804306,0.7546191215515137,0.029326159507036213,-0.00748404487967491,0.25474807620048523,0
55,1549908725965048,0.058028038591146476,0.2189971059560776,0.7481244206428528,0.008573770523071289,-0.004291368648409843,0.2462342977523804,0
56,1549908726015048,0.05285722389817238,0.14550815522670746,0.7482998967170715,-0.00845383107662201,-0.021851083263754845,0.27283990383148193,0
57,1549908726065048,0.02757768332958221,0.1513872593641281,0.7554967999458313,-0.011114392429590223,-0.008016157895326614,0.2632618844509125,0
58,1549908726115048,0.028726752847433087,0.05144227296113968,0.7591829895973206,0.009105883538722992,-0.0021629203110933304,0.25900498032569885,0
59,1549908726165048,0.033323034644126885,0.11170322448015213,0.7437360286712646,5.996972322463989e-05,-0.02876854501664638,0.2632618844509125,0
60,1549908726215048,0.024705007672309875,0.07201918214559555,0.7418051958084106,0.00697743333876133,-0.008548269048333168,0.2515554130077362,0
61,1549908726265048,0.05860257521271705,0.1322801411151886,0.757076621055603,0.00697743333876133,0.005818769335746765,0.2478306293487549,0
62,1549908726315048,0.043664664030075066,0.08524719625711441,0.7504063248634338,0.013894896954298021,-0.01652995683252811,0.2504911720752716,0
63,1549908726365048,0.05572989955544472,0.1484477072954178,0.7532148957252502,0.008573770523071289,-0.0016308072954416275,0.2531517446041107,0
64,1549908726415048,0.0517081543803215,0.1749037355184555,0.7472467422485352,0.011766446754336357,-0.004823481664061546,0.24144527316093445,0
65,1549908726465048,0.014363376423716543,0.05879117175936699,0.7437360286712646,0.019748134538531303,-0.01067672111093998,0.261665552854538,0
66,1549908726515048,0.058028038591146476,0.027925806120038036,0.7511084675788879,0.00538109615445137,0.0015618689358234403,0.23984894156455994,0
67,1549908726565048,0.07468955963850021,0.13521969318389893,0.7556723356246948,-0.0238850936293602,0.004222432151436807,0.2792252600193024,0
68,1549908726615048,0.0471118725836277,0.11758234351873398,0.751459538936615,0.007509546354413032,-0.005355594679713249,0.2675187885761261,0
69,1549908726665048,0.04941001534461975,0.10729388892650604,0.7479488849639893,0.023472921922802925,-0.005355594679713249,0.2515554130077362,0
70,1549908726715048,0.0752640888094902,0.2674998342990875,0.7577787637710571,-0.012710731476545334,0.025506932288408283,0.253683865070343,0
71,1549908726765048,0.035621173679828644,0.05879117175936699,0.7493531107902527,0.009105883538722992,-0.005887707695364952,0.27550047636032104,0
72,1549908726815048,0.031024893745779988,0.11905211955308916,0.7493531107902527,0.02081235870718956,0.007415106520056724,0.2691151201725006,0
73,1549908726865048,0.0005745350499637425,0.027925806120038036,0.7509329319000244,0.05061066150665283,0.004222432151436807,0.2627297639846802,0
74,1549908726915048,0.053431760519742966,0.23957401514053345,0.7516350746154785,0.009105883538722992,0.02497482113540173,0.25740864872932434,0
75,1549908726965048,0.056878969073295586,0.14550815522670746,0.7532148957252502,0.009637996554374695,0.008479331620037556,0.29306018352508545,0
76,1549908727015048,0.016661517322063446,0.09112631529569626,0.7425073385238647,0.03305094689130783,0.004754543304443359,0.29306018352508545,0
77,1549908727065048,0.031024893745779988,0.2189971059560776,0.7542680501937866,0.009637996554374695,0.019121583551168442,0.29252809286117554,0
78,1549908727115048,0.029301287606358525,0.12346146255731585,0.7581298351287842,0.028261935338377956,0.010075669735670091,0.2962528765201569,0
79,1549908727165048,-0.012770397588610649,0.17049439251422882,0.7435604929924011,0.019748134538531303,0.008479331620037556,0.2845464050769806,0
80,1549908727215048,0.040791988372802734,0.2674998342990875,0.7609383463859558,0.01602334715425968,0.036681294441223145,0.3164731562137604,0
81,1549908727265048,0.0212577972561121,0.25868114829063416,0.7507573962211609,0.002720532938838005,-0.006419820711016655,0.3372255265712738,0
82,1549908727315048,0.016661517322063446,0.08818675577640532,0.7425073385238647,0.01602334715425968,-0.0010986942797899246,0.36010637879371643,0
83,1549908727365048,0.060900714248418815,0.2483927011489868,0.7542680501937866,0.005913208238780498,0.015928907319903374,0.34307876229286194,0
84,1549908727415048,0.02815221808850765,0.1940108686685562,0.7521616816520691,0.008041658438742159,0.0015618689358234403,0.3510604500770569,0
85,1549908727465048,-0.012770397588610649,0.15726637840270996,0.7467201352119446,-0.014307066798210144,-3.446824848651886e-05,0.3670238256454468,0
86,1549908727515048,-0.0076622385531663895,0.03380492329597473,0.7521616816520691,0.010702220723032951,0.0031582061201334,0.3856477737426758,0
87,1549908727565048,0.004021745175123215,-0.0664072260260582,0.7523372173309326,0.03251883387565613,0.01273623201996088,0.3686201870441437,0
88,1549908727615048,-0.01532447710633278,0.19988998770713806,0.7433849573135376,0.0016563087701797485,0.006882993504405022,0.350528359413147,0
89,1549908727665048,0.03159942850470543,0.25574159622192383,0.7633958458900452,0.005913208238780498,0.01858947053551674,0.356913685798645,0
90,1549908727715048,-0.011493357829749584,0.2381042391061783,0.7535659074783325,0.0037847580388188358,-0.011740943416953087,0.3670238256454468,0
91,1549908727765048,0.005170815624296665,0.0543818324804306,0.7463690638542175,0.025069259107112885,-0.022383196279406548,0.3739413022994995,0
92,1549908727815048,0.00919256079941988,0.07348896563053131,0.751810610294342,0.02187658473849297,-0.015465734526515009,0.3595742583274841,0
93,1549908727865048,0.008618026040494442,0.11758234351873398,0.7544435858726501,0.012298558838665484,-0.010144608095288277,0.372344970703125,0
94,1549908727915048,0.014937911182641985,0.1484477072954178,0.7495286464691162,0.012298558838665484,-0.015465734526515009,0.36542749404907227,0
95,1549908727965048,0.02987582236528397,0.12346146255731585,0.7558478713035583,0.02081235870718956,-0.012805169448256493,0.3734091818332672,0
96,1549908728015048,0.033323034644126885,0.1866619735956192,0.7569010853767395,-0.0015363674610853195,-0.01652995683252811,0.3664917349815369,0
97,1549908728065048,0.0005745350499637425,0.12787079811096191,0.7447892427444458,0.010170108638703823,-0.03196122497320175,0.3877762258052826,0
98,1549908728115048,-0.0,0.25574159622192383,0.7484754323959351,0.02187658473849297,-0.008548269048333168,0.3712807297706604,0
99,1549908728165048,-0.02298671565949917,0.22634601593017575,0.7597095966339111,0.028261935338377956,0.007415106520056724,0.3734091818332672,0
100,1549908728215048,-0.026817835867404938,0.13081035017967224,0.7453158497810364,0.040500521659851074,-0.02078685723245144,0.38085877895355225,0
101,1549908728265048,0.014937911182641985,0.11905211955308916,0.7521616816520691,0.017087571322917938,-0.005355594679713249,0.3781982064247131,0
102,1549908728315048,0.04653733968734741,0.2175273299217224,0.7558478713035583,0.005913208238780498,0.008479331620037556,0.3771339654922485,0
103,1549908728365048,0.04481373354792595,0.16902461647987366,0.7502307891845703,0.014427009038627148,-0.0005665812641382217,0.3776660859584808,0
104,1549908728415048,0.00804349035024643,0.16461527347564694,0.7451403141021729,0.025601372122764587,-0.01972263492643833,0.3829872012138367,0
105,1549908728465048,0.008618026040494442,0.18078285455703733,0.7560234069824219,0.003252645954489708,-0.00375925749540329,0.3760697543621063,0
106,1549908728515048,0.02298140153288841,0.17637351155281067,0.7526882886886597,0.00538109615445137,-0.03142911195755005,0.39895060658454895,0
107,1549908728565048,0.027003146708011627,0.18078285455703733,0.7505818605422974,0.014427009038627148,-0.03142911195755005,0.3728770911693573,0
108,1549908728615048,0.0471118725836277,0.16461527347564694,0.751459538936615,0.009637996554374695,-0.00748404487967491,0.3686201870441437,0
109,1549908728665048,0.07124234735965729,0.16020594537258148,0.7528638243675232,0.02028024755418301,-0.014933621510863302,0.3851156532764435,0
110,1549908728715048,0.04941001534461975,0.1940108686685562,0.7521616816520691,0.00538109615445137,-0.00375925749540329,0.3750055134296417,0
111,1549908728765048,0.02585407719016075,0.12640102207660675,0.7511084675788879,0.0021884199231863018,-0.008016157895326614,0.3925652503967285,0
112,1549908728815048,0.030450357124209407,0.14256858825683594,0.7505818605422974,0.012830670922994614,-0.0144015084952116,0.3968221545219421,0
113,1549908728865048,0.014937911182641985,0.1557966023683548,0.7553212642669678,0.010170108638703823,-0.00748404487967491,0.37553763389587397,0
114,1549908728915048,0.011490700766444206,0.13081035017967224,0.746193528175354,0.01549123413860798,-0.019190521910786632,0.3851156532764435,0
115,1549908728965048,0.017810586839914322,0.0661400705575943,0.7523372173309326,0.0192160215228796,-0.004291368648409843,0.3797945380210877,0
116,1549908729015048,0.02815221808850765,0.1366894692182541,0.756725549697876,0.013362783938646315,0.01273623201996088,0.3712807297706604,0
117,1549908729065048,0.013788841664791107,0.1366894692182541,0.7507573962211609,0.018683910369873047,-0.00748404487967491,0.3744734227657318,0
118,1549908729115048,-0.0076622385531663895,0.08671697974205017,0.7526882886886597,0.004848983138799667,-0.005887707695364952,0.3861798942089081,0
119,1549908729165048,0.00459628039970994,0.10582410544157027,0.7474222779273987,-0.0047290436923503884,0.005818769335746765,0.3930973410606384,0
120,1549908729215048,0.033323034644126885,0.2219366729259491,0.7512840032577515,-0.002600591629743576,-0.0016308072954416275,0.3861798942089081,0
121,1549908729265048,0.03677024319767952,0.14991748332977295,0.7495286464691162,0.051142774522304535,-0.01972263492643833,0.38139086961746216,0
122,1549908729315048,0.05228269100189209,0.2410438060760498,0.7533903717994691,0.025601372122764587,0.010607781819999218,0.3627669513225555,0
123,1549908729365048,0.054580830037593835,0.16020594537258148,0.7458424568176271,0.01549123413860798,-0.005355594679713249,0.3893725574016571,0
124,1549908729415048,0.09767095744609833,0.13521969318389893,0.7509329319000244,0.017087571322917938,0.007415106520056724,0.402143269777298,0
125,1549908729465048,0.03217396140098572,0.2366344630718231,0.7458424568176271,0.011766446754336357,0.0004976429045200348,0.3904367983341217,0
126,1549908729515048,0.006894420832395554,0.1014147698879242,0.7523372173309326,-0.005793267861008644,-0.008016157895326614,0.4181066453456879,0
127,1549908729565048,0.008618026040494442,-0.04611612856388092,0.7528638243675232,0.01761968433856964,-0.0005665812641382217,0.4223635494709015,0
128,1549908729615048,-0.0,0.09553565084934236,0.7475978136062622,0.022940810769796368,-0.0005665812641382217,0.3915010094642639,0
129,1549908729665048,0.00459628039970994,0.124931238591671,0.7519861459732056,0.002720532938838005,0.0004976429045200348,0.3936294615268707,0
130,1549908729715048,-0.01660151779651642,0.14991748332977295,0.7498797178268433,-0.011114392429590223,-0.004823481664061546,0.3920331299304962,0
131,1549908729765048,-0.06257494539022446,0.035274703055620193,0.7551457285881042,0.018151797354221344,-0.01120883412659168,0.3883083462715149,0
132,1549908729815048,-0.0574667900800705,0.1366894692182541,0.757076621055603,0.01549123413860798,0.009011443704366684,0.3585100471973419,0
133,1549908729865048,-0.0766223892569542,-0.009223225526511671,0.7495286464691162,0.03145461156964302,-0.01759418286383152,0.3558494746685028,0
134,1549908729915048,-0.07406830787658691,0.049972496926784515,0.7500552535057068,0.02187658473849297,-0.00375925749540329,0.3297759592533112,0
135,1549908729965048,-0.011493357829749584,0.07201918214559555,0.7600606679916382,0.01655545830726624,0.008479331620037556,0.3159410357475281,0
136,1549908730015048,-0.029371915385127068,0.07642852514982224,0.7519861459732056,0.018151797354221344,-0.010144608095288277,0.3047666847705841,0
137,1549908730065048,-0.07406830787658691,0.06320051103830338,0.7490020394325256,0.013894896954298021,0.002626093104481697,0.3015739917755127,0
138,1549908730115048,-0.024263756349682808,0.10729388892650604,0.7553212642669678,0.00697743333876133,0.005818769335746765,0.2813537120819092,0
139,1549908730165048,-0.052358631044626236,0.08230763673782349,0.7519861459732056,0.008041658438742159,-0.02291530929505825,0.2850784957408905,0
140,1549908730215048,-0.011493357829749584,0.07201918214559555,0.751459538936615,0.012298558838665484,-0.01120883412659168,0.27337202429771423,0
141,1549908730265048,-0.020432636141777042,0.09994499385356903,0.7479488849639893,0.005913208238780498,-0.00375925749540329,0.2504911720752716,0
142,1549908730315048,0.007468955591320991,0.10729388892650604,0.7565500140190125,-0.008985944092273712,0.01273623201996088,0.24038104712963104,0
143,1549908730365048,-0.040865272283554084,0.01910713128745556,0.7509329319000244,0.006445320323109628,-0.014933621510863302,0.25740864872932434,0
144,1549908730415048,-0.006385198794305325,0.05879117175936699,0.7537414431571959,0.01549123413860798,-0.0021629203110933304,0.2355920374393463,0
145,1549908730465048,-0.0,0.11317300796508788,0.751459538936615,0.012292410247027874,-0.008012149482965471,0.2253691554069519,0
146,1549908730515048,0.013788841664791107,0.052912052720785134,0.7477733492851257,0.014952972531318663,-0.02025073580443859,0.23335084319114685,0
147,1549908730565048,0.037344779819250114,0.10729388892650604,0.7528638243675232,0.005372259765863419,0.002628786489367485,0.21727877855300906,0
148,1549908730615048,0.04883547872304917,0.1513872593641281,0.7497041821479797,0.012815423309803007,-0.0053502246737480155,0.2214249074459076,0
149,1549908730665048,0.0379193127155304,0.12640102207660675,0.7556723356246948,0.00642685778439045,-0.008006783202290535,0.2255689799785614,0
150,1549908730715048,0.021832332015037537,0.08818675577640532,0.7512840032577515,0.003764412365853787,-0.003216160461306572,0.2254561930894852,0
151,1549908730765048,0.001149070099927485,0.052912052720785134,0.7490020394325256,-0.0010240878909826279,-0.010660404339432716,0.2253434658050537,0
152,1549908730815048,0.005170815624296665,0.010288454592227936,0.7504063248634338,0.012804431840777395,-0.002677375450730324,0.2199123203754425,0
153,1549908730865048,-0.014047437347471714,0.09406587481498717,0.751459538936615,0.0090751051902771,-0.0005486514419317245,0.19640111923217773,0
154,1549908730915048,0.01608698070049286,0.07201918214559555,0.7491775751113892,0.0048157963901758185,-0.003207610920071602,0.21066276729106906,0
155,1549908730965048,0.027003146708011627,0.1366894692182541,0.7507573962211609,0.019705090671777725,-0.0037378538399934773,0.20098420977592468,0
156,1549908731015048,0.0189596563577652,0.15285705029964447,0.7549701929092407,0.007994615472853184,0.007432792335748672,0.18652385473251346,0
157,1549908731065048,0.008618026040494442,0.05144227296113968,0.7460179924964905,0.007990618236362934,-0.01384478434920311,0.20717260241508484,0
158,1549908731115048,0.037344779819250114,0.09259609133005142,0.7526882886886597,0.028728635981678963,-9.851530194282532e-06,0.19164547324180606,0
159,1549908731165048,0.02585407719016075,0.11170322448015213,0.7547946572303772,0.02180026657879353,0.011158928275108336,0.1708076298236847,0
160,1549908731215048,0.037344779819250114,0.1557966023683548,0.751810610294342,-0.009589577093720436,0.0031756516546010967,0.1951871812343597,0
161,1549908731265048,0.01953419111669064,0.0661400705575943,0.7493531107902527,0.001052146777510643,-0.011185793206095695,0.20679019391536715,0
162,1549908731315048,0.02355593629181385,0.1396290361881256,0.7553212642669678,0.0015834681689739227,0.012752893380820751,0.20136834681034088,0
163,1549908731365048,0.00976709555834532,0.05585161224007607,0.7507573962211609,0.006369292736053467,-0.0037407241761684413,0.1906307190656662,0
164,1549908731415048,0.033323034644126885,0.0896565392613411,0.7511084675788879,0.003706875257194042,0.004238845780491829,0.18202587962150574,0
165,1549908731465048,0.033323034644126885,0.12934057414531708,0.7512840032577515,0.005300560966134071,-0.002677278593182564,0.1888488531112671,0
166,1549908731515048,0.04021745547652245,0.13815924525260925,0.751810610294342,0.005297910422086716,0.0021106768399477005,0.1898181289434433,0
167,1549908731565048,0.01838512159883976,0.1205219030380249,0.7546191215515137,-0.0016187429428100586,-0.0016133040189743042,0.2072741538286209,0
168,1549908731615048,-0.01787855662405491,0.03380492329597473,0.751459538936615,-0.003213472664356232,0.0058333538472652435,0.2156800627708435,0
169,1549908731665048,0.014363376423716543,-0.003689290257170797,0.7563744783401489,-0.021294647827744484,0.032422758638858795,0.22035883367061612,0
170,1549908731715048,0.017236052080988884,-0.09038761258125304,0.751459538936615,-0.0404304713010788,-0.009609322994947432,0.1915289461612701,0
171,1549908731765048,0.004021745175123215,-0.17339664697647095,0.7463690638542175,-0.005308389663696289,-0.008540824055671692,0.13399375975131989,0
172,1549908731815048,0.0189596563577652,0.042623598128557205,0.7563744783401489,0.005863039754331112,0.029224546626210213,0.07595549523830414,0
173,1549908731865048,0.00804349035024643,-0.03504825755953789,0.7497041821479797,-0.0005220510065555574,-0.005360087379813193,0.07219459116458893,0
174,1549908731915048,0.03159942850470543,-0.01660180650651455,0.7560234069824219,-0.02285934053361416,-0.0032300222665071487,0.07960434257984161,0
175,1549908731965048,0.033323034644126885,0.0,0.7456669211387634,-0.019124986603856087,-0.01971565000712872,0.03754867240786552,0
176,1549908732015048,0.040791988372802734,0.026456026360392567,0.7491775751113892,-0.014860652387142181,-0.0058777816593647,0.01997896283864975,0
177,1549908732065048,0.01838512159883976,-0.011067871004343031,0.7526882886886597,-0.003684446215629577,0.002634700387716293,0.01837343350052834,0
178,1549908732115048,0.012639771215617657,-0.009223225526511671,0.7525127530097961,0.003763246349990368,0.006356309168040752,0.013577627018094065,0
179,1549908732165048,0.02815221808850765,0.05732139199972153,0.7500552535057068,-0.006343718618154526,-0.0016245674341917038,0.010379759594798088,0
180,1549908732215048,0.03447210416197777,0.007348896469920874,0.7497041821479797,0.0032326914370059967,-0.008005913347005844,0.025266271084547043,0
181,1549908732265048,0.035621173679828644,0.042623598128557205,0.7523372173309326,0.01174061931669712,-0.0021515991538763046,0.010361935943365095,0
182,1549908732315048,0.0189596563577652,0.1014147698879242,0.7511084675788879,0.0037570511922240257,0.001040557399392128,0.0108886007219553,0
183,1549908732365048,0.010916166007518768,0.04409337788820267,0.7547946572303772,0.004287019371986389,-0.000555502250790596,0.015669776126742363,0
184,1549908732415048,0.006319885607808828,0.03821426257491112,0.7482998967170715,0.002689337357878685,-0.0165106188505888,0.007684243842959405,0
185,1549908732465048,0.032748498022556305,0.06026095151901245,0.7535659074783325,-0.006353398784995079,-0.0010788161307573318,0.013530712574720384,0
186,1549908732515048,0.03677024319767952,0.017637351527810097,0.7507573962211609,0.009073326364159584,0.0042401887476444244,0.02309718355536461,0
187,1549908732565048,0.05285722389817238,0.07054940611124039,0.7533903717994691,0.02076941356062889,0.006365452893078327,-0.004038535058498383,0
188,1549908732615048,0.045388270169496536,0.05144227296113968,0.7509329319000244,0.0016125552356243136,-0.002679118886590004,0.0034093353897333145,0
189,1549908732665048,0.016661517322063446,0.036744482815265656,0.7546191215515137,-0.00317486934363842,-0.0032096263021230693,0.015108251944184303,0
190,1549908732715048,0.021832332015037537,0.06760984659194946,0.7512840032577515,0.00799549464136362,0.0015785973519086838,0.007654847577214241,0
191,1549908732765048,0.020108727738261226,0.036744482815265656,0.7505818605422974,0.009587036445736885,-0.010654661804437636,0.013501331210136414,0
192,1549908732815048,0.02068326249718666,0.041153818368911736,0.7530393600463867,0.01064593531191349,0.0005194414407014847,0.010303502902388573,0
193,1549908732865048,-0.012770397588610649,0.06173073127865791,0.751810610294342,0.005853994749486446,-0.0016082040965557098,0.0055117327719926825,0
194,1549908732915048,-0.0025540795177221303,0.020576909184455868,0.7509329319000244,0.006382914260029793,0.0005199853330850601,0.013486674055457115,0
195,1549908732965048,0.01608698070049286,0.06173073127865791,0.7523372173309326,0.012230033986270428,0.007433731108903884,-0.0014117695391178133,0
196,1549908733015048,0.027003146708011627,0.06907962262630463,0.7498797178268433,0.006905453279614449,-0.0010795295238494873,0.002311859279870987,0
197,1549908733065048,0.028726752847433087,0.08671697974205017,0.7525127530097961,-0.006926007568836211,-0.002674529328942299,0.004438089206814766,0
198,1549908733115048,0.016661517322063446,0.07936808466911316,0.7532148957252502,-0.017027629539370537,-0.0005458053201436996,0.010286182165145874,0
199,1549908733165048,-0.047250472009181976,0.04556315764784813,0.7521616816520691,-0.01435988023877144,-0.00586399808526039,0.02144981361925602,0
200,1549908733215048,-0.04214231297373772,0.04409337788820267,0.7512840032577515,-0.004247618839144707,-0.002138141542673111,0.013461392372846605,0
201,1549908733265048,0.005745350383222103,0.04850271716713905,0.7512840032577515,0.0021366626024246216,-0.003200763836503029,0.00015849806368350983,0
202,1549908733315048,0.014363376423716543,0.0543818324804306,0.7521616816520691,-0.0026510227471590038,-0.002667317166924477,0.004413191229104996,0
203,1549908733365048,0.017236052080988884,0.0543818324804306,0.7505818605422974,0.005327999591827393,-0.0010704454034566881,0.011856837198138235,0
204,1549908733415048,0.02757768332958221,0.0661400705575943,0.7495286464691162,0.015430418774485588,-0.003197295591235161,0.003341365605592728,0
205,1549908733465048,0.02298140153288841,0.06907962262630463,0.7535659074783325,0.004785774275660515,-0.002132004126906395,0.006530772894620895,0
206,1549908733515048,0.001149070099927485,0.05879117175936699,0.7505818605422974,-0.004258008673787117,-0.0031946301460266113,0.00971858762204647,0
207,1549908733565048,0.01206523645669222,0.07642852514982224,0.7507573962211609,-0.006383266299962997,-0.003193031996488571,0.003863414749503136,0
208,1549908733615048,0.02240686677396297,0.042623598128557205,0.751459538936615,-0.005848227068781853,-0.0047869738191366204,0.013434721156954764,0
209,1549908733665048,0.02298140153288841,0.0543818324804306,0.7507573962211609,-0.0037179160863161096,-0.0021253488957881927,0.004918459802865982,0
210,1549908733715048,0.011490700766444206,0.0661400705575943,0.7509329319000244,-0.0053115952759981155,-0.0005287453532218933,0.0065115392208099365,0
211,1549908733765048,0.01034163124859333,0.036744482815265656,0.7542680501937866,-0.0047770943492650994,0.0015989057719707491,0.012358594685792923,0
212,1549908733815048,0.00229814019985497,0.05732139199972153,0.7526882886886597,-0.0010517798364162443,-0.0021248199045658107,0.0043747182935476294,0
213,1549908733865048,0.01838512159883976,0.05585161224007607,0.7525127530097961,-0.0005194097757339479,-0.0026556029915809627,0.006499916315078735,0
214,1549908733915048,0.021832332015037537,0.035274703055620193,0.751810610294342,0.001608237624168396,-0.002654274925589561,0.00862405262887478,0
215,1549908733965048,0.017810586839914322,0.041153818368911736,0.7505818605422974,0.008521435782313347,-0.0005255620926618576,0.003833122551441193,0
216,1549908734015048,0.01838512159883976,0.06760984659194946,0.7521616816520691,0.00958086922764778,0.00426132045686245,-0.0004235655069351196,0
217,1549908734065048,0.02642861194908619,0.049972496926784515,0.751810610294342,0.010639769956469536,0.0042591895908117286,0.0038314182311296467,0
218,1549908734115048,0.02068326249718666,0.06907962262630463,0.7516350746154785,0.009038910269737244,0.004788905382156372,0.003829503431916237,0
219,1549908734165048,0.017236052080988884,0.06907962262630463,0.7511084675788879,0.00743885152041912,0.003722818568348885,0.0038275886327028283,0
220,1549908734215048,0.00919256079941988,0.07054940611124039,0.7521616816520691,0.007966977544128895,0.00318911112844944,0.0011664442718029024,0
221,1549908734265048,0.006319885607808828,0.07054940611124039,0.7530393600463867,0.00796299334615469,0.00531490333378315,0.004356939345598221,0
222,1549908734315048,-0.0025540795177221303,0.05879117175936699,0.7530393600463867,0.003172393888235092,0.002653012052178383,0.0038229133933782578,0
223,1549908734365048,0.002872675191611052,0.05879117175936699,0.7523372173309326,-0.003743197768926621,0.001056145876646042,9.807758033275604e-05,0
224,1549908734415048,0.006894420832395554,0.05879117175936699,0.7521616816520691,-0.004273172467947006,-0.0026673078536987305,0.0038209538906812672,0
225,1549908734465048,0.005745350383222103,0.07054940611124039,0.7509329319000244,-0.003739189356565476,-0.006388900801539421,0.003287198022007942,0
226,1549908734515048,0.01034163124859333,0.06907962262630463,0.7519861459732056,-0.003205472603440285,-0.004258317872881889,0.007008479908108711,0
227,1549908734565048,0.01034163124859333,0.0661400705575943,0.7516350746154785,-0.0010764840990304947,-0.0026606488972902302,0.009664207696914671,0
228,1549908734615048,0.003447210416197777,0.06320051103830338,0.7516350746154785,0.0005195923149585724,-0.0021274741739034653,0.00806383416056633,0
229,1549908734665048,-0.02298671565949917,0.05879117175936699,0.7528638243675232,0.001051180064678192,0.0010646693408489227,0.0069961100816726685,0
230,1549908734715048,-0.025540795177221298,0.0661400705575943,0.7521616816520691,0.001050654798746109,0.0015959832817316055,0.004865225404500961,0
231,1549908734765048,-0.020432636141777042,0.06026095151901245,0.7505818605422974,0.000518282875418663,0.0005314908921718596,0.004862792789936066,0
232,1549908734815048,0.00919256079941988,0.06173073127865791,0.751459538936615,0.0005180239677429199,-0.003191700205206871,0.0032648220658302307,0
233,1549908734865048,0.031024893745779988,0.06467028707265854,0.7507573962211609,-1.4081597328186035e-05,-0.006913028657436371,0.0016676504164934158,0
234,1549908734915048,0.0212577972561121,0.05879117175936699,0.751810610294342,-1.4074146747589111e-05,0.0021318159997463226,0.0037942007184028634,0
235,1549908734965048,0.02298140153288841,0.06467028707265854,0.7521616816520691,0.0005177799612283707,-0.0005284808576107025,0.0032604578882455826,0
236,1549908735015048,0.02815221808850765,0.06320051103830338,0.7516350746154785,-1.432560384273529e-05,-0.0015919096767902374,0.003258828073740005,0
237,1549908735065048,0.020108727738261226,0.06467028707265854,0.7512840032577515,-1.4318153262138367e-05,0.0010681189596652985,0.003789043053984642,0
238,1549908735115048,0.024705007672309875,0.06320051103830338,0.7505818605422974,-1.4310702681541446e-05,-0.001059800386428833,0.0027234572917222977,0
239,1549908735165048,0.02298140153288841,0.06320051103830338,0.7505818605422974,0.0005175434052944183,4.423782229423523e-06,0.003253942355513573,0
240,1549908735215048,0.02413047291338444,0.06760984659194946,0.751459538936615,-1.4562159776687622e-05,4.421919584274292e-06,0.003252316266298294,0
241,1549908735265048,0.02642861194908619,0.06467028707265854,0.751810610294342,0.0005172919481992722,-0.0015911217778921127,0.002718843519687653,0
242,1549908735315048,0.02413047291338444,0.0661400705575943,0.7519861459732056,0.000517033040523529,0.0005370602011680603,0.0037811752408742905,0
243,1549908735365048,0.02642861194908619,0.06173073127865791,0.751810610294342,0.0005167741328477861,-0.0010587479919195175,0.0032474398612976074,0
244,1549908735415048,0.024705007672309875,0.06320051103830338,0.751459538936615,-0.0005471780896186829,-0.0005263723433017732,0.003245815634727478,0
245,1549908735465048,0.02355593629181385,0.06320051103830338,0.7519861459732056,-1.5057623386383053e-05,5.736947059631348e-06,0.003244193270802498,0
246,1549908735515048,0.02355593629181385,0.06320051103830338,0.751810610294342,0.0005167964845895766,-0.0010579600930213928,0.0032425709068775177,0
247,1549908735565048,0.02413047291338444,0.06320051103830338,0.751810610294342,0.0005165375769138336,-0.0005255844444036484,0.002709101885557175,0
248,1549908735615048,0.02413047291338444,0.0661400705575943,0.7509329319000244,0.0005162786692380905,-0.0005253218114376068,0.0037714391946792603,0
249,1549908735665048,0.024705007672309875,0.06173073127865791,0.751459538936615,0.0005160197615623474,-0.0005250591784715652,0.003237707540392876,0
250,1549908735715048,0.024705007672309875,0.06173073127865791,0.7523372173309326,0.0010476093739271164,-0.0005247965455055237,0.003236088901758194,0
251,1549908735765048,0.025279542431235317,0.06467028707265854,0.7519861459732056,-1.6609206795692444e-05,-0.001056380569934845,0.003766315057873726,0
252,1549908735815048,0.02298140153288841,0.06173073127865791,0.751810610294342,-1.660175621509552e-05,-0.0005240049213171005,0.0032325871288776398,0
253,1549908735865048,0.02355593629181385,0.06320051103830338,0.751459538936615,0.0005152542144060135,-0.000523742288351059,0.0032309703528881073,0
254,1549908735915048,0.02413047291338444,0.05879117175936699,0.751810610294342,0.0005149971693754196,-0.0005234796553850174,0.0032293554395437236,0
255,1549908735965048,0.024705007672309875,0.06173073127865791,0.7521616816520691,-1.710653305053711e-05,8.629634976387024e-06,0.003759585320949553,0
256,1549908736015048,0.02298140153288841,0.06467028707265854,0.751810610294342,-1.7097219824790955e-05,-0.0005232207477092743,0.0037577059119939813,0
257,1549908736065048,0.02240686677396297,0.0661400705575943,0.7507573962211609,0.0005147587507963179,8.888542652130127e-06,0.003223981708288193,0
258,1549908736115048,0.02413047291338444,0.06467028707265854,0.751459538936615,0.0005145017057657242,8.884817361831665e-06,0.003222370520234108,0
259,1549908736165048,0.02355593629181385,0.06467028707265854,0.7512840032577515,0.0010460913181304932,-0.0005229674279689789,0.003220759332180023,0
260,1549908736215048,0.02413047291338444,0.06320051103830338,0.7507573962211609,0.0005137212574481964,9.141862392425535e-06,0.003750994801521301,0
261,1549908736265048,0.02642861194908619,0.06467028707265854,0.751459538936615,0.0005134642124176025,-0.001054557040333748,0.003217274323105812,0
262,1549908736315048,0.024705007672309875,0.06173073127865791,0.751810610294342,0.0005132071673870087,9.663403034210203e-06,0.0026838183403015137,0
263,1549908736365048,0.02298140153288841,0.06320051103830338,0.7511084675788879,0.0010447967797517774,-0.0005221888422966003,0.0026824772357940674,0
264,1549908736415048,0.02413047291338444,0.06320051103830338,0.7507573962211609,0.0005124267190694809,-0.000521928071975708,0.003212982788681984,0
265,1549908736465048,0.02585407719016075,0.0661400705575943,0.751459538936615,0.000512169674038887,1.017935574054718e-05,0.003743221983313561,0
266,1549908736515048,0.02642861194908619,0.06907962262630463,0.7505818605422974,0.0005119144916534424,-0.0005216728895902634,0.0032095052301883693,0
267,1549908736565048,0.025279542431235317,0.06320051103830338,0.7511084675788879,0.0010435059666633606,1.043453812599182e-05,0.0032078996300697327,0
268,1549908736615048,0.024705007672309875,0.06467028707265854,0.7512840032577515,0.0005111377686262131,1.0428950190544127e-05,0.002674449235200882,0
269,1549908736665048,0.02413047291338444,0.06907962262630463,0.751810610294342,0.0005108825862407683,1.0423362255096436e-05,0.003204958513379097,0
270,1549908736715048,0.024705007672309875,0.06320051103830338,0.7512840032577515,-2.1219253540039066e-05,-0.0005214288830757141,0.0026715099811553955,0
271,1549908736765048,0.024705007672309875,0.06467028707265854,0.7516350746154785,-2.120807766914368e-05,-0.0005211681127548218,0.002670174464583397,0
272,1549908736815048,0.024705007672309875,0.06467028707265854,0.7509329319000244,0.0005106497555971147,1.093931496143341e-05,0.0026688389480113983,0
273,1549908736865048,0.02413047291338444,0.06467028707265854,0.7507573962211609,0.0005103945732116699,1.0933727025985718e-05,0.0031993519514799122,0
274,1549908736915048,0.025279542431235317,0.06467028707265854,0.7519861459732056,0.0005101393908262253,1.0928139090538023e-05,0.00266590528190136,0
275,1549908736965048,0.024705007672309875,0.0661400705575943,0.7519861459732056,0.0005098842084407806,-0.0005209241062402724,0.003728264942765236,0
276,1549908737015048,0.02585407719016075,0.06467028707265854,0.7512840032577515,0.000509629026055336,-0.0005206633359193802,0.002662708982825279,0
277,1549908737065048,0.02413047291338444,0.06320051103830338,0.7521616816520691,0.0005093738436698914,-0.0015840977430343628,0.002661377191543579,0
278,1549908737115048,0.025279542431235317,0.06760984659194946,0.7519861459732056,0.0005091186612844467,-0.004242537543177605,0.002660047262907028,0
279,1549908737165048,0.027003146708011627,0.07054940611124039,0.7516350746154785,0.0010407101362943651,-0.0058359578251838675,0.0021268706768751144,0
280,1549908737215048,0.014363376423716543,0.06467028707265854,0.751810610294342,0.0005083419382572174,-0.007960425689816475,0.00159396231174469,0
281,1549908737265048,0.016661517322063446,0.06760984659194946,0.7511084675788879,0.0015717819333076475,-0.021784452721476555,-0.0005342233926057817,0
282,1549908737315048,0.025279542431235317,0.06467028707265854,0.7507573962211609,-0.0005563925951719284,-0.014859557151794434,0.004784509539604187,0
283,1549908737365048,0.045962803065776825,0.06173073127865791,0.7519861459732056,-0.000556115061044693,-0.0042151957750320435,0.00212288461625576,0
284,1549908737415048,0.045388270169496536,0.0661400705575943,0.751459538936615,-2.399086952209473e-05,-0.0010220110416412354,0.0021218229085206985,0
285,1549908737465048,0.03159942850470543,0.06173073127865791,0.751810610294342,0.0005078688263893127,0.0037651192396879205,0.003716301172971726,0
286,1549908737515048,0.030450357124209407,0.06320051103830338,0.751459538936615,0.0005076155066490173,-0.0010233819484710693,0.003714442253112793,0
287,1549908737565048,0.03389756754040718,0.06173073127865791,0.7516350746154785,0.0010392088443040848,-0.0020865648984909053,0.0037125851958990093,0
288,1549908737615048,0.031024893745779988,0.06320051103830338,0.7516350746154785,0.0010386891663074491,0.0005737114697694777,0.003178883343935013,0
289,1549908737665048,0.032748498022556305,0.06173073127865791,0.7505818605422974,0.0005063228309154509,-0.002085808664560318,0.0031772945076227192,0
290,1549908737715048,0.031024893745779988,0.06467028707265854,0.7505818605422974,0.0005060695111751556,-0.0004892256110906602,0.0037075504660606384,0
291,1549908737765048,0.03217396140098572,0.06173073127865791,0.7509329319000244,0.0005058161914348601,-0.0004889816045761108,0.00317385233938694,0
292,1549908737815048,0.035046637058258064,0.06320051103830338,0.7505818605422974,-2.6283785700798035e-05,-0.0010205842554569244,0.003172265365719795,0
293,1549908737865048,0.033323034644126885,0.06467028707265854,0.7516350746154785,-2.6270747184753415e-05,4.361942410469055e-05,0.0031706783920526505,0
294,1549908737915048,0.03389756754040718,0.06320051103830338,0.7512840032577515,-2.62577086687088e-05,-0.001020096242427826,0.003169093281030655,0
295,1549908737965048,0.030450357124209407,0.06760984659194946,0.7512840032577515,0.0005056019872426988,4.410743713378906e-05,0.0031675081700086594,0
296,1549908738015048,0.031024893745779988,0.06026095151901245,0.7516350746154785,0.0005053486675024034,4.408508539199829e-05,0.00263407826423645,0
297,1549908738065048,0.031024893745779988,0.06320051103830338,0.751810610294342,-2.6751309633255005e-05,-0.0004877839237451553,0.003164608031511307,0
298,1549908738115048,0.03159942850470543,0.06320051103830338,0.7512840032577515,-2.673827111721039e-05,-0.00048753991723060613,0.0031630266457796092,0
299,1549908738165048,0.03217396140098572,0.06467028707265854,0.7516350746154785,0.0005051214247941972,-0.0004872959107160568,0.003161445260047913,0
300,1549908738215048,0.033323034644126885,0.06467028707265854,0.7512840032577515,0.0005048681050539017,4.479475319385529e-05,0.0031598638743162155,0
301,1549908738265048,0.033323034644126885,0.06173073127865791,0.7507573962211609,0.0005046147853136064,4.477240145206451e-05,0.003158284351229668,0
302,1549908738315048,0.03217396140098572,0.06320051103830338,0.7512840032577515,-2.7485191822052e-05,-0.001018943265080452,0.00315670482814312,0
303,1549908738365048,0.03217396140098572,0.06320051103830338,0.7511084675788879,0.0010362230241298676,-0.00048658624291419983,0.003155127167701721,0
304,1549908738415048,0.03159942850470543,0.06173073127865791,0.7516350746154785,0.0005038585513830185,4.550442099571228e-05,0.0031535495072603226,0
305,1549908738465048,0.03217396140098572,0.06467028707265854,0.7512840032577515,-2.823956310749054e-05,-0.0004863645881414414,0.003151971846818924,0
306,1549908738515048,0.03159942850470543,0.06907962262630463,0.7507573962211609,-2.8224661946296692e-05,-0.0004861205816268921,0.0031503960490226746,0
307,1549908738565048,0.03159942850470543,0.06760984659194946,0.7525127530097961,0.00050363689661026,-0.00048587843775749207,0.003148820251226425,0
308,1549908738615048,0.032748498022556305,0.06760984659194946,0.7516350746154785,-2.8461217880249023e-05,-0.000485636293888092,0.003679091110825538,0
309,1549908738665048,0.032748498022556305,0.0661400705575943,0.7512840032577515,-2.8446316719055176e-05,-0.000485394150018692,0.0036772508174180976,0
310,1549908738715048,0.032748498022556305,0.06320051103830338,0.751810610294342,-2.8431415557861328e-05,4.669465124607086e-05,0.0031435675919055943,0
311,1549908738765048,0.033323034644126885,0.06173073127865791,0.7512840032577515,-2.841651439666748e-05,-0.00048517622053623205,0.003141995519399643,0
312,1549908738815048,0.03159942850470543,0.06026095151901245,0.7521616816520691,-2.8401613235473633e-05,-0.0010167807340621948,0.003140425309538841,0
313,1549908738865048,0.032748498022556305,0.0661400705575943,0.751810610294342,-2.8386712074279785e-05,-0.0004844255745410919,0.00313885509967804,0
314,1549908738915048,0.03389756754040718,0.06467028707265854,0.7512840032577515,0.0005034748464822768,-0.0004841834306716919,0.0036691315472126007,0
315,1549908738965048,0.03159942850470543,0.06173073127865791,0.7523372173309326,-2.8623268008232123e-05,-0.00048394128680229187,0.0036672968417406078,0
316,1549908739015048,0.02355593629181385,0.06173073127865791,0.7516350746154785,0.0005032382905483246,-0.004206623882055283,0.003133617341518402,0
317,1549908739065048,0.011490700766444206,0.06467028707265854,0.7530393600463867,-0.0005607064813375473,-0.001013442873954773,0.002600204199552536,0
318,1549908739115048,0.0005745350499637425,0.05732139199972153,0.7523372173309326,-0.0005604252219200134,-0.002608474344015121,0.0015352126210927965,0
319,1549908739165048,0.010916166007518768,0.06467028707265854,0.7523372173309326,-0.0010919906198978424,-0.0026071704924106602,0.0010025985538959503,0
320,1549908739215048,0.02298140153288841,0.05585161224007607,0.7519861459732056,-2.775341272354126e-05,-0.002605866640806198,0.00047025084495544434,0
321,1549908739265048,0.03217396140098572,0.06026095151901245,0.7512840032577515,0.0010359548032283783,-0.00047717802226543427,-0.001657368615269661,0
322,1549908739315048,0.035621173679828644,0.06467028707265854,0.7509329319000244,0.0015672836452722552,0.001118600368499756,-0.0011246968060731886,0
323,1549908739365048,0.029301287606358525,0.06173073127865791,0.7507573962211609,0.0020983442664146428,0.0011180415749549868,-0.0005922876298427582,0
324,1549908739415048,0.01838512159883976,0.06467028707265854,0.7511084675788879,0.0015654508024454115,0.0021811742335557933,0.0004717018455266953,0
325,1549908739465048,0.01206523645669222,0.0661400705575943,0.7521616816520691,0.0015646684914827347,0.0027119312435388565,0.001003313809633255,0
326,1549908739515048,0.0189596563577652,0.0661400705575943,0.7519861459732056,0.0020957309752702713,0.0016468837857246401,0.002598350867629051,0
327,1549908739565048,0.027003146708011627,0.06320051103830338,0.7519861459732056,0.0031583774834871288,-0.0004813261330127716,0.0025970526039600372,0
328,1549908739615048,0.031024893745779988,0.06907962262630463,0.7521616816520691,0.0026249513030052185,-0.0020766258239746094,0.0020639076828956604,0
329,1549908739665048,0.021832332015037537,0.06760984659194946,0.7516350746154785,0.0010281000286340714,-0.0026074331253767014,0.0015310309827327726,0
330,1549908739715048,0.0189596563577652,0.06907962262630463,0.7516350746154785,-3.61073762178421e-05,-0.0031379759311676025,-6.527453660964966e-05,0
331,1549908739765048,0.02240686677396297,0.0661400705575943,0.751810610294342,-0.002695320174098015,-0.0036682542413473134,0.0009984523057937622,0
332,1549908739815048,0.03159942850470543,0.07495874166488647,0.7516350746154785,-0.005353204905986786,-0.0036664195358753204,0.003657184541225433,0
333,1549908739865048,0.035621173679828644,0.06320051103830338,0.751810610294342,-0.006414221599698068,-0.0031327400356531143,0.0041872020810842505,0
334,1549908739915048,0.040791988372802734,0.06026095151901245,0.751810610294342,-0.005879167467355728,-0.0015356354415416718,-0.0016652010381221773,0
335,1549908739965048,0.03677024319767952,0.06907962262630463,0.7516350746154785,-0.0037488415837287907,-0.0025985594838857646,-0.003791756927967072,0
336,1549908740015048,0.029301287606358525,0.05732139199972153,0.7526882886886597,-0.00481066107749939,-0.0036609545350074772,-0.0011306293308734894,0
337,1549908740065048,0.02585407719016075,0.06467028707265854,0.7512840032577515,-0.0048082564026117325,-0.004722816869616509,-0.0005982164293527602,0
338,1549908740115048,0.02757768332958221,0.06026095151901245,0.7505818605422974,-0.005869545042514801,-0.0052523016929626465,0.002593163400888443,0
339,1549908740165048,0.035621173679828644,0.04850271716713905,0.7511084675788879,-0.006930302828550339,-0.00312228873372078,0.004187405109405518,0
340,1549908740215048,0.03906838223338127,0.05732139199972153,0.7511084675788879,-0.006394991651177406,-0.002057036384940148,-0.0011331550776958466,0
341,1549908740265048,0.035046637058258064,0.04850271716713905,0.7523372173309326,-0.005328100174665451,-0.00046046636998653406,-0.0016644317656755447,0
342,1549908740315048,0.03159942850470543,0.04850271716713905,0.7523372173309326,-0.00160251185297966,0.000603456050157547,-0.0021954458206892014,0
343,1549908740365048,0.029301287606358525,0.05144227296113968,0.7509329319000244,0.0005256757140159607,-0.0015242323279380796,-0.0016625020653009415,0
344,1549908740415048,0.02757768332958221,0.04850271716713905,0.7509329319000244,-0.0005382802337408067,-0.0015234705060720446,-0.0016616713255643847,0
345,1549908740465048,0.02987582236528397,0.047032937407493584,0.7523372173309326,0.0010575298219919203,0.0011365246027708056,-0.002724533900618553,0
346,1549908740515048,0.02585407719016075,0.052912052720785134,0.751459538936615,0.0026525408029556274,0.0016678031533956528,-0.0037868656218051906,0
347,1549908740565048,0.035046637058258064,0.05144227296113968,0.7509329319000244,0.0010556746274232862,7.143057882785797e-05,-0.002189431339502334,0
348,1549908740615048,0.04136652499437332,0.049972496926784515,0.7519861459732056,0.0021188389509916306,-0.0009922981262207033,-0.0032520312815904613,0
349,1549908740665048,0.039642918854951865,0.06467028707265854,0.7502307891845703,0.0042451657354831696,-0.004714727401733398,-0.0027185585349798203,0
350,1549908740715048,0.037344779819250114,0.03821426257491112,0.7511084675788879,0.00317935086786747,0.001669788733124733,0.008983422070741653,0
351,1549908740765048,0.031024893745779988,0.08230763673782349,0.7509329319000244,-0.00905470922589302,0.0016689542680978775,-0.001657998189330101,0
352,1549908740815048,0.027003146708011627,0.05879117175936699,0.7516350746154785,-0.000540638342499733,0.003263657912611961,0.0041931401938200006,0
353,1549908740865048,0.0379193127155304,0.07054940611124039,0.7519861459732056,-0.0031995996832847595,-0.0020564403384923935,0.00685027614235878,0
354,1549908740915048,0.04136652499437332,0.0778983011841774,0.7516350746154785,-0.0010706130415201187,-0.0015235655009746554,0.016420088708400726,0
355,1549908740965048,0.02757768332958221,0.049972496926784515,0.7511084675788879,-0.0010700784623622894,-0.003650190308690071,0.01907110959291458,0
356,1549908741015048,0.029301287606358525,0.06760984659194946,0.7525127530097961,-5.850568413734436e-06,-0.003648364916443825,0.016934188082814217,0
357,1549908741065048,0.032748498022556305,0.05732139199972153,0.7526882886886597,-0.0010695401579141617,-0.00949685089290142,0.02224418707191944,0
358,1549908741115048,0.035046637058258064,0.042623598128557205,0.7509329319000244,-0.0010690055787563324,-0.012683181092143059,0.02542414329946041,0
359,1549908741165048,0.035621173679828644,0.05144227296113968,0.7509329319000244,-0.0031958576291799545,-0.015867920592427254,0.027006972581148148,0
360,1549908741215048,0.039642918854951865,0.041153818368911736,0.7521616816520691,-0.005853492766618729,-0.0036275163292884827,0.029120855033397675,0
361,1549908741265048,0.04941001534461975,0.042623598128557205,0.7533903717994691,-0.003723179921507835,-0.0014983173459768295,0.028574448078870773,0
362,1549908741315048,0.05113362148404122,0.03233514353632927,0.7519861459732056,-0.0026576239615678787,-0.00043387338519096375,0.02962385304272175,0
363,1549908741365048,0.03677024319767952,0.04409337788820267,0.751810610294342,-0.0005289111286401749,0.0016937293112277985,0.031736429780721664,0
364,1549908741415048,0.03619570657610893,0.05732139199972153,0.7525127530097961,0.0010668933391571043,0.0070113465189933786,0.034911639988422394,0
365,1549908741465048,0.04826094582676888,0.03821426257491112,0.7546191215515137,-0.0005291812121868134,0.020304003730416298,0.039148956537246704,0
366,1549908741515048,0.05228269100189209,0.10582410544157027,0.7482998967170715,-0.0010607615113258364,-0.005766626447439194,0.03647014871239662,0
367,1549908741565048,0.02413047291338444,0.07495874166488647,0.7504063248634338,-0.0074423886835575095,0.004341341555118561,0.06570347398519516,0
368,1549908741615048,0.06836967170238495,0.014697792939841747,0.7551457285881042,-0.013288980349898338,-0.019593924283981327,0.04280121996998787,0
369,1549908741665048,0.0660715326666832,0.06026095151901245,0.7504063248634338,-0.0031772516667842865,-0.013733815401792526,0.03799320012331009,0
370,1549908741715048,0.04998454824090004,0.049972496926784515,0.7490020394325256,-0.001048276200890541,-0.005749251693487167,0.04010158777236938,0
371,1549908741765048,0.050559084862470634,0.024986248463392258,0.7521616816520691,0.0005477871745824814,-0.004682682454586029,0.04061338305473328,0
372,1549908741815048,0.053431760519742966,0.024986248463392258,0.7523372173309326,-0.001579873263835907,-0.006807727739214897,0.04378415644168854,0
373,1549908741865048,0.05228269100189209,0.027925806120038036,0.751459538936615,-0.002642774954438209,-0.005740631371736527,0.04429411143064499,0
374,1549908741915048,0.053431760519742966,0.004409337881952524,0.7512840032577515,0.0005496237426996231,-0.004674067720770836,0.04214457795023918,0
375,1549908741965048,0.04998454824090004,0.013228013180196284,0.7505818605422974,0.0005493480712175369,-0.008926503360271454,0.03680504113435745,0
376,1549908742015048,0.04826094582676888,0.020576909184455868,0.7509329319000244,0.0016127675771713257,-0.006794653832912445,0.03519110009074211,0
377,1549908742065048,0.04653733968734741,0.0235164687037468,0.7504063248634338,0.0010801143944263456,-0.004663869738578796,0.03676904365420342,0
378,1549908742115048,0.04941001534461975,0.026456026360392567,0.7511084675788879,0.000547727569937706,-0.002534151077270508,0.03834619745612145,0
379,1549908742165048,0.04941001534461975,0.026456026360392567,0.7504063248634338,-0.0005162395536899567,-0.005192117765545845,0.03939071670174599,0
380,1549908742215048,0.05515536665916443,0.005879117175936699,0.7509329319000244,-0.0010478273034095764,-0.0041258279234170905,0.03937102109193802,0
381,1549908742265048,0.053431760519742966,0.008818675763905048,0.751459538936615,-0.002642842009663582,-0.004655612632632256,0.035628411918878555,0
382,1549908742315048,0.050559084862470634,0.016167571768164638,0.751459538936615,-0.002641521394252777,-0.004121437668800354,0.03295136243104935,0
383,1549908742365048,0.04768640920519829,0.01910713128745556,0.7504063248634338,-0.003172047436237335,-0.002523837611079216,0.03133934736251831,0
384,1549908742415048,0.0425155945122242,0.0235164687037468,0.7511084675788879,-0.0010430756956338882,-0.0035862699151039124,0.028664447367191318,0
385,1549908742465048,0.037344779819250114,0.035274703055620193,0.7500552535057068,-0.0010425541549921038,-0.001988938078284264,0.029713807627558705,0
386,1549908742515048,0.039642918854951865,0.026456026360392567,0.7512840032577515,-0.002105725929141045,0.00013944506645202637,0.03448556736111641,0
387,1549908742565048,0.045962803065776825,0.011758234351873398,0.7512840032577515,-0.0015728268772363665,0.0006712209433317183,0.03606386482715607,0
388,1549908742615048,0.05515536665916443,0.0014697792939841747,0.7516350746154785,-0.0005083475261926651,0.00013904087245464325,0.03604583442211151,0
389,1549908742665048,0.054580830037593835,-0.0055339355021715156,0.7509329319000244,0.0005556009709835051,-0.0003928747028112412,0.03336857631802559,0
390,1549908742715048,0.04481373354792595,0.007348896469920874,0.7509329319000244,0.0016190167516469955,0.0006710141897201537,0.0301608145236969,0
391,1549908742765048,0.031024893745779988,0.027925806120038036,0.7505818605422974,0.0010863598436117172,-0.0003930125385522842,0.030145734548568726,0
392,1549908742815048,0.025279542431235317,0.03233514353632927,0.7523372173309326,0.0010858159512281418,-0.002520201727747917,0.03438543155789375,0
393,1549908742865048,0.03619570657610893,0.0235164687037468,0.7521616816520691,0.0010852739214897156,-0.003582635894417763,0.03968670219182968,0
394,1549908742915048,0.05860257521271705,0.0014697792939841747,0.7516350746154785,0.0010847318917512894,-0.007835617288947105,0.041794247925281525,0
395,1549908742965048,0.06722059845924377,-0.012912516482174395,0.751459538936615,-0.0015750434249639511,-0.012086469680070877,0.040709659457206726,0
396,1549908743015048,0.06664606928825377,-0.03504825755953789,0.7507573962211609,-0.0010424088686704638,-0.007825655862689018,0.037498220801353455,0
397,1549908743065048,0.04883547872304917,0.007348896469920874,0.7500552535057068,0.0005536507815122603,-0.005162511020898819,0.031097315251827237,0
398,1549908743115048,0.0425155945122242,0.026456026360392567,0.7511084675788879,0.0016170684248209,-0.001968851312994957,0.031081765890121463,0
399,1549908743165048,0.04423920065164566,0.013228013180196284,0.751459538936615,0.00267995148897171,-0.001436019316315651,0.033725455403327935,0
400,1549908743215048,0.0563044361770153,0.004409337881952524,0.7509329319000244,0.003210458904504776,-0.00037160702049732214,0.0337085947394371,0
401,1549908743265048,0.062049787491559975,-0.011067871004343031,0.7509329319000244,0.002677006646990776,0.0012241173535585403,0.03369174152612686,0
402,1549908743315048,0.060900714248418815,-0.012912516482174395,0.7502307891845703,0.002143820747733116,0.0017553530633449554,0.03101566061377525,0
403,1549908743365048,0.04481373354792595,0.016167571768164638,0.7512840032577515,0.002142749726772309,-0.0014366041868925097,0.025149842724204063,0
404,1549908743415048,0.030450357124209407,0.03380492329597473,0.7521616816520691,0.001609833911061287,-0.002499578520655632,0.025137268006801602,0
405,1549908743465048,0.01953419111669064,0.04409337788820267,0.7523372173309326,0.0016090292483568194,-0.002498328685760498,0.03150685876607895,0
406,1549908743515048,0.016661517322063446,0.05732139199972153,0.7523372173309326,0.0005445312708616257,-0.0019652340561151505,0.04212803393602371,0
407,1549908743565048,0.016661517322063446,0.06026095151901245,0.7509329319000244,0.0016079526394605634,-0.0024960972368717194,0.05327574908733368,0
408,1549908743615048,0.02815221808850765,0.04409337788820267,0.7507573962211609,0.0021389946341514587,-0.0003674626350402832,0.06760896742343903,0
409,1549908743665048,0.033323034644126885,0.03380492329597473,0.751459538936615,-0.0010531526058912275,0.0006964132189750671,0.07714839279651642,0
410,1549908743715048,0.029301287606358525,0.02204668894410133,0.7516350746154785,-0.0021163206547498703,-0.00036762654781341553,0.07764166593551636,0
411,1549908743765048,0.02642861194908619,0.036744482815265656,0.7505818605422974,-0.0010515693575143814,-0.003026675432920456,0.08451685309410095,0
412,1549908743815048,0.02068326249718666,0.024986248463392258,0.7525127530097961,-0.0010510440915822985,0.0012296102941036224,0.09351597726345062,0
413,1549908743865048,0.03217396140098572,0.026456026360392567,0.7505818605422974,0.0021405592560768127,-0.0008983910083770752,0.0966603010892868,0
414,1549908743915048,0.04653733968734741,-0.0055339355021715156,0.7519861459732056,0.004798721522092818,0.00016575120389461517,0.10086674988269806,0
415,1549908743965048,0.043664664030075066,0.026456026360392567,0.7509329319000244,0.0005415510386228561,-0.006216490641236304,0.10241185128688812,0
416,1549908744015048,0.0471118725836277,-0.003689290257170797,0.7516350746154785,-0.002117952331900597,-0.005681535229086876,0.10714726150035858,0
417,1549908744065048,0.04481373354792595,-0.007378580514341594,0.7502307891845703,-0.0015850458294153216,-0.008337926119565964,0.10602999478578568,0
418,1549908744115048,0.035621173679828644,0.01910713128745556,0.7484754323959351,-0.002647945657372475,-0.0014197546988725662,0.11023174971342088,0
419,1549908744165048,0.03619570657610893,0.005879117175936699,0.7537414431571959,-0.0031784679740667343,0.003899421542882919,0.1133677139878273,0
420,1549908744215048,0.03849384933710098,-0.029514322057366368,0.7532148957252502,0.002141585573554039,-0.007803151383996009,0.11597026884555815,0
421,1549908744265048,0.050559084862470634,0.029395585879683495,0.7497041821479797,0.007990826852619648,-0.012054020538926123,0.11378489434719086,0
422,1549908744315048,0.02642861194908619,0.036744482815265656,0.7498797178268433,0.007986831478774548,-0.005133990198373794,0.11691908538341522,0
423,1549908744365048,0.03217396140098572,-0.01660180650651455,0.7525127530097961,0.005323605611920357,0.004441814497113228,0.1312204748392105,0
424,1549908744415048,0.030450357124209407,0.007348896469920874,0.7507573962211609,0.00053432397544384,-0.004069950431585312,0.13275040686130524,0
425,1549908744465048,0.04194105789065361,0.014697792939841747,0.7532148957252502,-0.0005296375602483749,0.003909781575202942,0.13587510585784912,0
426,1549908744515048,0.04883547872304917,-0.0664072260260582,0.7535659074783325,2.473592758178711e-06,-0.002474330365657807,0.1416574865579605,0
427,1549908744565048,0.0471118725836277,-0.04611612856388092,0.7502307891845703,0.0063846297562122345,-0.007259711623191834,0.1314815729856491,0
428,1549908744615048,0.05285722389817238,0.007348896469920874,0.7535659074783325,-0.0005325675010681152,-0.011510852724313736,0.13513875007629395,0
429,1549908744665048,0.04768640920519829,-0.03504825755953789,0.7512840032577515,-0.013296617195010185,-0.010441407561302185,0.1451762616634369,0
430,1549908744715048,0.04423920065164566,-0.04427148401737213,0.7509329319000244,-0.004248578101396561,-0.004054026678204536,0.13127566874027252,0
431,1549908744765048,0.04941001534461975,-0.003689290257170797,0.7491775751113892,0.005326783284544946,-0.00724308006465435,0.13174188137054446,0
432,1549908744815048,0.03677024319767952,-0.014757161028683187,0.7502307891845703,0.014365510083734991,0.0033974722027778625,0.13061231374740598,0
433,1549908744865048,0.027003146708011627,-0.014757161028683187,0.7505818605422974,0.020208640024065968,0.0076505448669195175,0.13426993787288666,0
434,1549908744915048,0.03677024319767952,-0.003689290257170797,0.7521616816520691,0.009561605751514437,0.006583026610314846,0.1437760293483734,0
435,1549908744965048,0.035046637058258064,-0.042426839470863335,0.7533903717994691,0.0021109730005264282,0.006579735316336155,0.15274553000926971,0
436,1549908745015048,0.03217396140098572,-0.0018446451285853984,0.7509329319000244,-0.00586777925491333,0.0033853668719530106,0.1510736346244812,0
437,1549908745065048,0.035621173679828644,-0.07378580421209335,0.7528638243675232,0.015409015119075775,0.0044473689049482346,0.14567962288856506,0
438,1549908745115048,0.05572989955544472,0.002939558587968349,0.7560234069824219,0.029761165380477905,-0.012573942542076109,0.13656538724899292,0
439,1549908745165048,0.0517081543803215,0.017637351527810097,0.7468956708908081,0.01432273630052805,-0.0205453522503376,0.148197740316391,0
440,1549908745215048,0.07181688398122787,-0.08669832348823547,0.7500552535057068,0.010592648759484293,0.003929859027266502,0.15184655785560608,0
441,1549908745265048,0.06779513508081436,-0.09223225712776184,0.7530393600463867,0.013246584683656693,0.00499158538877964,0.13528339564800262,0
442,1549908745315048,0.04194105789065361,-0.02029109746217728,0.7512840032577515,0.016962885856628418,-0.007775226607918739,0.1208558976650238,0
443,1549908745365048,0.0425155945122242,0.008818675763905048,0.7505818605422974,0.021209176629781726,-0.010430572554469109,0.122391015291214,0
444,1549908745415048,0.03906838223338127,0.041153818368911736,0.7505818605422974,0.008434256538748741,-0.004043197259306908,0.13030751049518585,0
445,1549908745465048,0.02585407719016075,-0.025825032964348796,0.7521616816520691,-7.950514554977417e-05,-0.0024456363171339035,0.13928374648094174,0
446,1549908745515048,0.0379193127155304,-0.011067871004343031,0.7507573962211609,0.004707153886556625,-0.008294723927974701,0.12325871735811235,0
447,1549908745565048,0.04481373354792595,0.024986248463392258,0.7521616816520691,0.0025774147361516953,-0.00935427099466324,0.13011108338832855,0
448,1549908745615048,0.04826094582676888,-0.05165006592869759,0.7511084675788879,0.002044279128313065,0.0007554888725280763,0.1422784924507141,0
449,1549908745665048,0.045962803065776825,-0.04611612856388092,0.7530393600463867,0.010020955465734005,-0.005627047270536423,0.13529334962368011,0
450,1549908745715048,0.0379193127155304,0.035274703055620193,0.7495286464691162,0.009484099224209784,-0.010942699387669563,0.1251206248998642,0
451,1549908745765048,0.02585407719016075,0.014697792939841747,0.7502307891845703,0.004692738875746727,-0.003491375595331192,0.13835422694683075,0
452,1549908745815048,0.027003146708011627,0.004409337881952524,0.7542680501937866,0.003094853833317757,-0.0002985503524541855,0.14253981411457062,0
453,1549908745865048,0.035621173679828644,0.008818675763905048,0.7516350746154785,-0.0016933120787143707,-0.011999022215604782,0.1451277881860733,0
454,1549908745915048,0.0425155945122242,-0.022135742008686062,0.7486509680747986,0.00203046016395092,-0.004015326499938965,0.14771445095539093,0
455,1549908745965048,0.04941001534461975,-0.01660180650651455,0.7504063248634338,0.00947529636323452,-0.0013540871441364286,0.1465769112110138,0
456,1549908746015048,0.04883547872304917,0.016167571768164638,0.7532148957252502,0.012129790149629116,-0.0018852576613426206,0.1443762332201004,0
457,1549908746065048,0.05113362148404122,0.0014697792939841747,0.7509329319000244,-0.001704283058643341,-0.004011699929833411,0.15440912544727325,0
458,1549908746115048,0.043090127408504486,-0.06456258147954941,0.7507573962211609,-0.0011715833097696304,-0.00932816043496132,0.14741791784763336,0
459,1549908746165048,0.031024893745779988,0.03821426257491112,0.7507573962211609,0.002551928162574768,-0.013578267768025398,0.1351117342710495,0
460,1549908746215048,0.02757768332958221,0.030865365639328964,0.7477733492851257,0.007869117893278599,-0.003998240455985068,0.14249002933502194,0
461,1549908746265048,0.04423920065164566,-0.023980386555194855,0.7500552535057068,0.016374725848436356,0.008236227557063103,0.15784232318401334,0
462,1549908746315048,0.05228269100189209,-0.03504825755953789,0.7537414431571959,0.014239153824746609,0.0007862579077482224,0.15669971704483032,0
463,1549908746365048,0.057453505694866173,0.004409337881952524,0.7525127530097961,0.0041269510984420785,-0.014637684449553491,0.15662136673927307,0
464,1549908746415048,0.056878969073295586,-0.07563044875860214,0.7528638243675232,0.00412488728761673,-0.003993432968854904,0.1522882878780365,0
465,1549908746465048,0.04481373354792595,-0.027669677510857586,0.7507573962211609,0.0003999006003141403,-0.016223905608057976,0.14529813826084134,0
466,1549908746515048,0.039642918854951865,0.010288454592227936,0.7491775751113892,-0.00385507196187973,-0.02100241184234619,0.1420344114303589,0
467,1549908746565048,0.03389756754040718,0.027925806120038036,0.7502307891845703,0.004656398668885231,-0.010354982689023018,0.14355893433094025,0
468,1549908746615048,0.056878969073295586,-0.038737546652555466,0.751810610294342,0.015290999785065653,0.0013508182018995285,0.15306037664413452,0
469,1549908746665048,0.07411502301692963,-0.0811643898487091,0.7505818605422974,0.004646424204111099,-0.004500167444348335,0.1567067801952362,0
470,1549908746715048,0.053431760519742966,0.002939558587968349,0.7491775751113892,0.00038932822644710535,0.0002887006849050522,0.14439596235752106,0
471,1549908746765048,0.040791988372802734,0.030865365639328964,0.7519861459732056,-0.0028019435703754425,0.001352248713374138,0.14485560357570648,0
472,1549908746815048,0.04768640920519829,-0.06271793693304062,0.7498797178268433,0.0035816142335534096,0.002947110682725907,0.14797426760196686,0
473,1549908746865048,0.04194105789065361,-0.007378580514341594,0.7540925145149231,0.005707208998501301,-0.006627598777413368,0.1431136578321457,0
474,1549908746915048,0.03159942850470543,-0.027669677510857586,0.7516350746154785,0.00995912682265043,-0.010347211733460426,0.14038285613059998,0
475,1549908746965048,0.04423920065164566,-0.03135896846652031,0.7505818605422974,0.024845849722623825,-0.003959877416491509,0.13924898207187653,0
476,1549908747015048,0.04998454824090004,0.008818675763905048,0.7509329319000244,0.02217419445514679,-0.007148977369070053,0.1572621464729309,0
477,1549908747065048,0.043090127408504486,-0.02029109746217728,0.7532148957252502,0.0035484796389937396,0.002427833154797554,0.1656930446624756,0
478,1549908747115048,0.0379193127155304,-0.014757161028683187,0.7490020394325256,0.0046103987842798224,0.0024266187101602554,0.15444141626358032,0
479,1549908747165048,0.04481373354792595,0.010288454592227936,0.7509329319000244,0.008862866088747978,0.007212024182081222,0.14904573559761047,0
480,1549908747215048,0.02413047291338444,0.004409337881952524,0.751459538936615,0.010453972965478895,0.002953646704554558,0.1558852195739746,0
481,1549908747265048,0.031024893745779988,0.029395585879683495,0.7535659074783325,0.010448746383190157,-0.0060892216861248025,0.15899837017059326,0
482,1549908747315048,0.043090127408504486,-0.018446451053023342,0.7498797178268433,0.01576198823750019,0.0008278284221887589,0.1631736308336258,0
483,1549908747365048,0.04481373354792595,-0.05533935502171517,0.7493531107902527,0.021072572097182274,0.007741419598460197,0.1593691259622574,0
484,1549908747415048,0.05228269100189209,0.005879117175936699,0.7523372173309326,0.016807263717055317,0.000291699543595314,0.16035312414169312,0
485,1549908747465048,0.0614752508699894,-0.018446451053023342,0.7532148957252502,0.005630084313452244,-0.007686145603656769,0.1597411185503006,0
486,1549908747515048,0.04998454824090004,-0.023980386555194855,0.7504063248634338,0.002968037500977516,-0.01087338291108608,0.15806569159030914,0
487,1549908747565048,0.05285722389817238,-0.0018446451285853984,0.7502307891845703,0.004030246287584305,-0.009804252535104752,0.1510726511478424,0
488,1549908747615048,0.03447210416197777,0.011758234351873398,0.7497041821479797,0.007219310849905014,0.0050923507660627365,0.1430194228887558,0
489,1549908747665048,0.02642861194908619,0.030865365639328964,0.7530393600463867,0.008279392495751381,0.0029624179005622864,0.14879822731018064,0
490,1549908747715048,0.035621173679828644,0.016167571768164638,0.7509329319000244,0.009338947013020515,0.0013653971254825592,0.15085120499134064,0
491,1549908747765048,0.035046637058258064,0.014697792939841747,0.751810610294342,0.005611351691186428,0.005087640136480331,0.1513076275587082,0
492,1549908747815048,0.03159942850470543,-0.0055339355021715156,0.7537414431571959,0.010927010327577593,0.0040214043110609055,0.1581459939479828,0
493,1549908747865048,0.0212577972561121,0.04850271716713905,0.7498797178268433,0.007198622450232507,-0.010340463370084764,0.1570032238960266,0
494,1549908747915048,0.02413047291338444,0.007348896469920874,0.7511084675788879,0.00772686954587698,0.0013653300702571867,0.1643705666065216,0
495,1549908747965048,0.04423920065164566,-0.02029109746217728,0.7525127530097961,0.014105164445936682,0.006683112122118473,0.16428837180137634,0
496,1549908748015048,0.03389756754040718,0.029395585879683495,0.7498797178268433,0.009311493486166,-0.0007660798728466034,0.16952469944953918,0
497,1549908748065048,0.060326181352138526,-0.04796077311038971,0.7542680501937866,0.011434223502874373,0.0013616885989904404,0.1657170206308365,0
498,1549908748115048,0.04423920065164566,0.03233514353632927,0.7490020394325256,0.006641887128353119,-0.02044469676911831,0.15606091916561127,0
499,1549908748165048,0.03619570657610893,0.03821426257491112,0.7493531107902527,0.007170412689447403,-0.0050109270960092545,0.15545104444026947,0
500,1549908748215048,0.035046637058258064,-0.0055339355021715156,0.7502307891845703,0.008230520412325859,-0.003944728523492813,0.15430963039398193,0
501,1549908748265048,0.03447210416197777,0.029395585879683495,0.7523372173309326,0.015140410512685776,-0.003410911187529564,0.15210507810115814,0
502,1549908748315048,0.02585407719016075,0.036744482815265656,0.7502307891845703,0.0050277579575777045,0.001377413049340248,0.16426150500774386,0
503,1549908748365048,0.03447210416197777,-0.038737546652555466,0.7528638243675232,0.00077047199010849,0.003504110500216484,0.16577491164207458,0
504,1549908748415048,0.0563044361770153,-0.04611612856388092,0.7526882886886597,-0.0018891468644142149,-0.008198263123631477,0.15824617445468905,0
505,1549908748465048,0.045388270169496536,-0.0018446451285853984,0.7516350746154785,0.007685034535825252,-0.01032155193388462,0.14699827134609222,0
506,1549908748515048,0.03159942850470543,0.042623598128557205,0.7504063248634338,0.022041046991944317,-0.00818900391459465,0.14320184290409088,0
507,1549908748565048,0.02815221808850765,0.024986248463392258,0.7521616816520691,0.016711561009287834,-0.0033982917666435237,0.15270347893238068,0
508,1549908748615048,0.03217396140098572,-0.027669677510857586,0.7523372173309326,0.002343351021409035,-0.007119517773389815,0.15528635680675507,0
509,1549908748665048,0.0563044361770153,-0.012912516482174395,0.7537414431571959,0.006065104156732559,-0.006584111601114273,0.14829471707344055,0
510,1549908748715048,0.0517081543803215,0.03380492329597473,0.7521616816520691,0.010316843166947365,-0.01349482499063015,0.14396579563617706,0
511,1549908748765048,0.031024893745779988,0.04850271716713905,0.7456669211387634,0.010311685502529144,-0.007105920463800429,0.14336197078227994,0
512,1549908748815048,0.040791988372802734,0.027925806120038036,0.7523372173309326,0.01934792101383209,0.007257487624883652,0.1491405963897705,0
513,1549908748865048,0.040791988372802734,0.0235164687037468,0.751459538936615,0.014551628381013869,0.0019353944808244703,0.15544818341732025,0
514,1549908748915048,0.05228269100189209,0.008818675763905048,0.7525127530097961,0.007630349136888981,-0.0023203454911708827,0.1537749171257019,0
515,1549908748965048,0.07124234735965729,-0.0811643898487091,0.7495286464691162,0.006562840193510056,-0.012956114485859873,0.14678402245044708,0
516,1549908749015048,0.07583862543106079,-0.02029109746217728,0.751810610294342,0.007623252458870411,-0.005503786727786064,0.1307552456855774,0
517,1549908749065048,0.060326181352138526,-0.0018446451285853984,0.7472467422485352,0.0033646682277321807,-0.00922396034002304,0.12218031287193297,0
518,1549908749115048,0.05860257521271705,0.020576909184455868,0.7497041821479797,0.005490371026098728,-0.0049645770341157905,0.10722752660512924,0
519,1549908749165048,0.06836967170238495,0.008818675763905048,0.7505818605422974,0.007083166390657425,0.004611143842339516,0.09866437315940857,0
520,1549908749215048,0.053431760519742966,0.011758234351873398,0.751459538936615,0.004420392215251923,0.0024814512580633163,0.10021057724952698,0
521,1549908749265048,0.062049787491559975,0.008818675763905048,0.7500552535057068,0.0012271031737327574,0.001948365941643715,0.09431015700101852,0
522,1549908749315048,0.06549699604511261,-0.04427148401737213,0.7463690638542175,0.004417568445205689,-0.011880615726113321,0.07777576148509979,0
523,1549908749365048,0.06262432038784027,0.02204668894410133,0.7504063248634338,0.0017561260610818865,-0.03421223163604736,0.05859039723873138,0
524,1549908749415048,0.07871130108833313,0.036744482815265656,0.7479488849639893,0.009732945822179316,-0.032067738473415375,0.04526494443416596,0
525,1549908749465048,0.05285722389817238,0.024986248463392258,0.7504063248634338,0.013451004400849342,-0.004395686089992522,0.059070318937301636,0
526,1549908749515048,0.0425155945122242,0.036744482815265656,0.7509329319000244,0.003871040418744087,0.0046479031443595895,0.05425416678190231,0
527,1549908749565048,0.05515536665916443,-0.003689290257170797,0.7521616816520691,-0.002513052895665169,0.006241118535399437,0.05209965258836746,0
528,1549908749615048,0.0706678107380867,0.0,0.7504063248634338,0.00440220907330513,-0.0017397012561559675,0.035054516047239304,0
529,1549908749665048,0.07296594977378845,0.035274703055620193,0.7490020394325256,0.016632476821541786,-0.0017388314008712769,0.019613439217209816,0
530,1549908749715048,0.05860257521271705,0.042623598128557205,0.7500552535057068,0.01556046865880489,-0.005460886284708978,0.026517637073993683,0
531,1549908749765048,0.05400629341602325,0.047032937407493584,0.751810610294342,0.00970237608999014,-0.0012033842504024506,0.023845145478844643,0
532,1549908749815048,0.050559084862470634,0.05144227296113968,0.7516350746154785,0.007038293406367302,0.00039275921881198883,0.024896914139389992,0
533,1549908749865048,0.04941001534461975,0.042623598128557205,0.7509329319000244,0.005439233966171742,-0.0001392848789691925,0.023288926109671596,0
534,1549908749915048,0.05572989955544472,0.04850271716713905,0.751459538936615,0.004904668778181076,-0.0006710626184940338,0.017958816140890118,0
535,1549908749965048,0.056878969073295586,0.042623598128557205,0.7509329319000244,0.003838522359728813,-0.0001388806849718094,0.015822451561689373,0
536,1549908750015048,0.059751644730567925,0.05144227296113968,0.7512840032577515,0.003304756246507168,-0.0006706584244966508,0.011559768579900265,0
537,1549908750065048,0.056878969073295586,0.05879117175936699,0.7509329319000244,0.0033031040802598,-0.00013847649097442627,0.00942660216242075,0
538,1549908750115048,0.056878969073295586,0.05585161224007607,0.7511084675788879,0.0027696061879396443,-0.00013840757310390472,0.007294503040611744,0
539,1549908750165048,0.0517081543803215,0.05879117175936699,0.7505818605422974,0.0017045270651578905,-0.00013833865523338318,0.00463162362575531,0
540,1549908750215048,0.05228269100189209,0.06173073127865791,0.7511084675788879,0.0006399825215339661,0.00039357692003250117,0.004097461700439453,0
541,1549908750265048,0.05572989955544472,0.06173073127865791,0.7509329319000244,0.00010781548917293549,0.0009252261370420457,0.004095412790775299,0
542,1549908750315048,0.06262432038784027,0.05879117175936699,0.7509329319000244,-0.0004240851849317551,0.0014566108584403992,0.0030296705663204197,0
543,1549908750365048,0.06377339363098145,0.052912052720785134,0.7512840032577515,-0.00042387284338474274,0.00145588256418705,0.0003689248114824295,0
544,1549908750415048,0.057453505694866173,0.052912052720785134,0.7505818605422974,0.00010818615555763243,0.0009233076125383377,-0.002822339534759521,0
545,1549908750465048,0.04826094582676888,0.06467028707265854,0.7512840032577515,-0.0004237145185470581,0.0003910008817911148,-0.004948314279317856,0
546,1549908750515048,0.04768640920519829,0.0661400705575943,0.7512840032577515,-0.0004235021770000458,-0.0006728880107402803,-0.00547768734395504,0
547,1549908750565048,0.04653733968734741,0.06320051103830338,0.7521616816520691,-0.0004232898354530335,-0.0006725508719682692,-0.005474949255585671,0
548,1549908750615048,0.0471118725836277,0.0661400705575943,0.7511084675788879,-0.0004230774939060211,-0.0006722137331962585,-0.005472211167216301,0
549,1549908750665048,0.04826094582676888,0.06320051103830338,0.7497041821479797,-0.0004228651523590088,-0.000671878457069397,-0.0054694749414920816,0
550,1549908750715048,0.0471118725836277,0.06467028707265854,0.7507573962211609,-0.00042265281081199646,-0.0006715431809425354,-0.0054667405784130105,0
551,1549908750765048,0.045388270169496536,0.06173073127865791,0.751459538936615,-0.00042244233191013336,-0.00013936124742031097,-0.004932159557938576,0
552,1549908750815048,0.045962803065776825,0.06026095151901245,0.751810610294342,-0.0004222318530082703,-0.00013929232954978943,-0.005461540073156357,0
553,1549908750865048,0.045388270169496536,0.06320051103830338,0.7511084675788879,-0.00042202137410640717,-0.00013922341167926788,-0.006522500887513161,0
554,1549908750915048,0.04653733968734741,0.06467028707265854,0.7507573962211609,0.0001100357621908188,-0.00013915449380874634,-0.005987392738461494,0
555,1549908750965048,0.04423920065164566,0.06467028707265854,0.751810610294342,0.00010997988283634187,-0.0001390855759382248,-0.005984399467706679,0
556,1549908751015048,0.045962803065776825,0.06320051103830338,0.7509329319000244,0.0006417725235223769,-0.00013901665806770325,-0.005449561402201653,0
557,1549908751065048,0.04653733968734741,0.06320051103830338,0.751459538936615,0.00010960549116134644,-0.0001389477401971817,-0.0054468363523483285,0
558,1549908751115048,0.04653733968734741,0.0661400705575943,0.7507573962211609,-0.00042229704558849335,-0.00013887882232666016,-0.005444113165140152,0
559,1549908751165048,0.04653733968734741,0.06173073127865791,0.751459538936615,-0.0004220865666866303,-0.0001388099044561386,-0.005973236635327339,0
560,1549908751215048,0.0471118725836277,0.06320051103830338,0.7521616816520691,0.0001099705696105957,-0.0001387409865856171,-0.005970250815153122,0
561,1549908751265048,0.04653733968734741,0.06467028707265854,0.751459538936615,0.00010991469025611876,-0.00013867206871509552,-0.005967264994978905,0
562,1549908751315048,0.0471118725836277,0.06320051103830338,0.7511084675788879,-0.000421987846493721,-0.00013860315084457395,-0.0064961276948452,0
563,1549908751365048,0.045388270169496536,0.06467028707265854,0.7512840032577515,0.00011006928980350493,0.00039331242442131037,-0.005961032584309578,0
564,1549908751415048,0.04826094582676888,0.06760984659194946,0.751810610294342,0.00011001341044902803,0.000393114984035492,-0.005426207557320596,0
565,1549908751465048,0.04653733968734741,0.06467028707265854,0.7512840032577515,0.00010995753109455107,0.0014566108584403992,-0.005423493683338164,0
566,1549908751515048,0.045388270169496536,0.06467028707265854,0.751459538936615,0.00010990165174007416,0.00145588256418705,-0.004888935014605522,0
567,1549908751565048,0.04423920065164566,0.06320051103830338,0.7509329319000244,0.0006416942924261093,0.001987000927329064,-0.005418337881565094,0
568,1549908751615048,0.04481373354792595,0.06320051103830338,0.751459538936615,0.0006413739174604416,0.0009223129600286485,-0.005947474390268326,0
569,1549908751665048,0.04653733968734741,0.06026095151901245,0.7509329319000244,0.000109206885099411,0.0003900062292814255,-0.004880808293819428,0
570,1549908751715048,0.04481373354792595,0.06467028707265854,0.7509329319000244,0.00010915286839008333,-0.00014203600585460663,-0.0059420596808195105,0
571,1549908751765048,0.04481373354792595,0.05879117175936699,0.7512840032577515,0.00010909885168075562,0.0009217262268066406,-0.005407243967056274,0
572,1549908751815048,0.04481373354792595,0.06173073127865791,0.7505818605422974,0.00010904483497142792,0.0009212661534547807,-0.005936386063694954,0
573,1549908751865048,0.04768640920519829,0.06173073127865791,0.7509329319000244,-0.0004228558391332625,0.0003889612853527069,-0.00593341700732708,0
574,1549908751915048,0.045962803065776825,0.06026095151901245,0.7519861459732056,0.00010920315980911256,0.0003887675702571869,-0.006462296470999718,0
575,1549908751965048,0.04653733968734741,0.06026095151901245,0.7516350746154785,-0.000422697514295578,-0.0001432746648788452,-0.005927218124270439,0
576,1549908752015048,0.043664664030075066,0.06026095151901245,0.7511084675788879,-0.0004224870353937149,-0.00014320388436317444,-0.0059242546558380136,0
577,1549908752065048,0.04481373354792595,0.06173073127865791,0.7511084675788879,0.00010957196354866028,-0.00014313310384750366,-0.005921293050050736,0
578,1549908752115048,0.04481373354792595,0.06467028707265854,0.7516350746154785,0.00010951794683933258,-0.0006749089807271957,-0.0059183333069086075,0
579,1549908752165048,0.04481373354792595,0.06173073127865791,0.751459538936615,0.00010946393013000488,-0.00014272518455982208,-0.0059153735637664795,0
580,1549908752215048,0.043664664030075066,0.06320051103830338,0.7511084675788879,0.0001094099134206772,0.0003891922533512116,-0.005912415683269501,0
581,1549908752265048,0.045388270169496536,0.06320051103830338,0.7507573962211609,0.00010935589671134947,-0.00014284998178482056,-0.005909459665417671,0
582,1549908752315048,0.0471118725836277,0.06320051103830338,0.7511084675788879,0.0001093018800020218,-0.00014277920126914978,-0.006438352167606354,0
583,1549908752365048,0.045388270169496536,0.05879117175936699,0.7509329319000244,0.00010924786329269408,0.001984678208827973,-0.005903286859393121,0
584,1549908752415048,0.045962803065776825,0.06026095151901245,0.7511084675788879,0.0006410405039787292,0.004642918705940247,-0.005900334566831589,0
585,1549908752465048,0.04653733968734741,0.05879117175936699,0.7512840032577515,0.00010887347161769868,0.005704289302229881,-0.005897384136915207,0
586,1549908752515048,0.0425155945122242,0.06173073127865791,0.7507573962211609,0.00010881945490837096,0.0062332842499017715,-0.005894435569643974,0
587,1549908752565048,0.04194105789065361,0.06320051103830338,0.751810610294342,0.00010876543819904327,0.004102781414985657,-0.006423335522413254,0
588,1549908752615048,0.045962803065776825,0.06320051103830338,0.751810610294342,0.00010871142148971558,0.001973344013094902,-0.005888277664780617,0
589,1549908752665048,0.04768640920519829,0.06026095151901245,0.7505818605422974,0.0006405040621757507,0.006758975796401501,-0.0069490280002355576,0
590,1549908752715048,0.040791988372802734,0.06467028707265854,0.7509329319000244,0.000640183687210083,0.0131377549842,-0.006945554167032242,0
591,1549908752765048,0.03217396140098572,0.07054940611124039,0.751810610294342,-0.00042383000254631037,0.012067493051290512,-0.006410233676433563,0
592,1549908752815048,0.03677024319767952,0.06320051103830338,0.7516350746154785,-0.00042361766099929815,0.0040837619453668594,-0.0042796432971954354,0
593,1549908752865048,0.03849384933710098,0.06907962262630463,0.751459538936615,-0.00042340531945228577,0.0008906405419111252,-0.005341198295354843,0
594,1549908752915048,0.0379193127155304,0.06467028707265854,0.7519861459732056,-0.00042319297790527344,0.00035835057497024536,-0.0058703720569610604,0
595,1549908752965048,0.037344779819250114,0.06760984659194946,0.7509329319000244,0.00010886602103710176,0.0003581717610359192,-0.005867436528205872,0
596,1549908753015048,0.0379193127155304,0.06467028707265854,0.751459538936615,-0.0009548831731081008,0.0008898377418518066,-0.005332658067345618,0
597,1549908753065048,0.0379193127155304,0.06320051103830338,0.7512840032577515,-0.00042255967855453486,0.0008893925696611404,-0.005329992622137071,0
598,1549908753115048,0.0379193127155304,0.06467028707265854,0.7504063248634338,0.00010949932038784028,0.0003571026027202606,-0.005859171971678735,0
599,1549908753165048,0.0379193127155304,0.0661400705575943,0.7507573962211609,-0.0004224032163619995,0.00035692378878593445,-0.00532439723610878,0
600,1549908753215048,0.03677024319767952,0.05879117175936699,0.7509329319000244,0.00010965578258037568,0.0003567449748516083,-0.005321735516190529,0
601,1549908753265048,0.037344779819250114,0.06173073127865791,0.7512840032577515,0.00010960176587104796,0.0003565661609172821,-0.005319073796272278,0
602,1549908753315048,0.03849384933710098,0.06320051103830338,0.751459538936615,0.00010954774916172028,0.00035638734698295593,-0.006380105391144753,0
603,1549908753365048,0.040791988372802734,0.06320051103830338,0.751810610294342,0.0006413403898477553,0.0008880533277988434,-0.006376914680004121,0
604,1549908753415048,0.04021745547652245,0.06320051103830338,0.7521616816520691,0.00010917335748672484,0.003014994785189629,-0.0058418791741132745,0
605,1549908753465048,0.04423920065164566,0.06026095151901245,0.7512840032577515,0.00010911934077739716,0.003013487905263901,-0.005307113751769066,0
606,1549908753515048,0.03906838223338127,0.06173073127865791,0.751810610294342,0.0006409119814634322,0.0040756743401288995,-0.005304459482431412,0
607,1549908753565048,0.03849384933710098,0.0661400705575943,0.751459538936615,0.00010874494910240172,0.0008825566619634627,-0.007961038500070572,0
608,1549908753615048,0.03619570657610893,0.07054940611124039,0.7519861459732056,-0.0004231557250022888,0.0008821152150630951,-0.008488904684782028,0
609,1549908753665048,0.030450357124209407,0.07054940611124039,0.751459538936615,-0.0004229433834552765,0.0014135204255580902,-0.008484659716486929,0
610,1549908753715048,0.02815221808850765,0.06907962262630463,0.7519861459732056,0.00010911561548709871,0.0008809659630060195,-0.00794856995344162,0
611,1549908753765048,0.02987582236528397,0.07201918214559555,0.751459538936615,0.000109061598777771,0.00034867972135543823,-0.006880903616547585,0
612,1549908753815048,0.032748498022556305,0.06907962262630463,0.7512840032577515,0.0001090075820684433,-0.00018334202468395236,-0.005813769996166229,0
613,1549908753865048,0.03677024319767952,0.06760984659194946,0.7511084675788879,0.00010895356535911559,-0.00018325075507164,-0.006342710927128792,0
614,1549908753915048,0.04021745547652245,0.0661400705575943,0.751459538936615,0.0001088995486497879,0.0003486871719360352,-0.005807692185044289,0
615,1549908753965048,0.0471118725836277,0.05732139199972153,0.7525127530097961,0.0001088455319404602,0.002475896850228309,-0.0058047883212566384,0
616,1549908754015048,0.04941001534461975,0.05732139199972153,0.7507573962211609,0.00010879151523113252,0.0008791200816631317,-0.007929271087050438,0
617,1549908754065048,0.04136652499437332,0.06320051103830338,0.7512840032577515,0.0001087374985218048,0.0008786804974079133,-0.009520847350358965,0
618,1549908754115048,0.02987582236528397,0.06907962262630463,0.7511084675788879,0.00010868348181247713,0.0008782409131526947,-0.010047933086752892,0
619,1549908754165048,0.028726752847433087,0.07054940611124039,0.7509329319000244,-0.00042321719229221344,0.0008778013288974763,-0.010042909532785416,0
620,1549908754215048,0.02642861194908619,0.07201918214559555,0.7505818605422974,-0.0004230048507452011,0.00034551694989204407,-0.008442347869276999,0
621,1549908754265048,0.029301287606358525,0.0661400705575943,0.7509329319000244,0.00010905414819717409,-0.0001865029335021973,-0.007374431937932969,0
622,1549908754315048,0.032748498022556305,0.06907962262630463,0.751810610294342,0.00010900013148784636,-0.00018640980124473566,-0.006307052448391914,0
623,1549908754365048,0.03389756754040718,0.0661400705575943,0.7511084675788879,-0.0004229005426168442,0.0008773747831583022,-0.0063038989901542655,0
624,1549908754415048,0.035046637058258064,0.06467028707265854,0.7507573962211609,0.000109158456325531,0.0008769351989030838,-0.006300747394561768,0
625,1549908754465048,0.03447210416197777,0.06760984659194946,0.7507573962211609,0.00010910443961620332,0.00034465081989765167,-0.006297597661614418,0
626,1549908754515048,0.033323034644126885,0.06320051103830338,0.7511084675788879,-0.0004227962344884872,0.0003444775938987732,-0.0057626012712717065,0
627,1549908754565048,0.035621173679828644,0.06173073127865791,0.7516350746154785,-0.00042258575558662415,-0.0001875422894954681,-0.006291566416621208,0
628,1549908754615048,0.043090127408504486,0.06320051103830338,0.7519861459732056,0.00010947324335575104,0.0019399374723434448,-0.006288420408964157,0
629,1549908754665048,0.0563044361770153,0.05144227296113968,0.751459538936615,-0.0004224292933940888,0.0014071203768253324,-0.007348967716097831,0
630,1549908754715048,0.0614752508699894,0.049972496926784515,0.7512840032577515,-0.0009540654718875883,0.00034272484481334686,-0.009472681209445,0
631,1549908754765048,0.05860257521271705,0.04850271716713905,0.7512840032577515,-0.0020172800868749623,0.0008743982762098312,-0.013722715899348259,0
632,1549908754815048,0.04998454824090004,0.05144227296113968,0.7509329319000244,-0.002016270533204079,0.0019376557320356371,-0.017438778653740883,0
633,1549908754865048,0.043090127408504486,0.05585161224007607,0.751459538936615,-0.002547109499573708,0.001404840499162674,-0.02221667766571045,0
634,1549908754915048,0.0379193127155304,0.05732139199972153,0.7505818605422974,-0.0036095287650823593,-0.00019140169024467468,-0.0248648002743721,0
635,1549908754965048,0.045388270169496536,0.05732139199972153,0.7497041821479797,-0.004671417176723479,-0.0007231533527374268,-0.024852367118000984,0
636,1549908755015048,0.059751644730567925,0.04556315764784813,0.7509329319000244,-0.006264621391892433,-0.0001909453421831131,-0.025371788069605827,0
637,1549908755065048,0.06434792280197144,0.04409337788820267,0.7519861459732056,-0.0073251817375421515,-0.00019085034728050232,-0.027486486360430717,0
638,1549908755115048,0.060326181352138526,0.03968404233455658,0.7512840032577515,-0.006789673119783402,0.001404784619808197,-0.02747274376451969,0
639,1549908755165048,0.05400629341602325,0.05732139199972153,0.7505818605422974,-0.005190739408135414,0.0029996205121278767,-0.02692716382443905,0
640,1549908755215048,0.05515536665916443,0.05144227296113968,0.7528638243675232,-0.0014652162790298462,0.014698743820190431,-0.0285092368721962,0
641,1549908755265048,0.05515536665916443,0.026456026360392567,0.7521616816520691,0.005449519492685796,0.02107355184853077,-0.03700452670454979,0
642,1549908755315048,0.04653733968734741,0.04850271716713905,0.7498797178268433,0.004914948716759682,-0.0018063858151435848,-0.04975034296512604,0
643,1549908755365048,0.035046637058258064,0.06026095151901245,0.7511084675788879,0.0011895671486854553,-0.008187638595700264,-0.05078916251659393,0
644,1549908755415048,0.031024893745779988,0.05585161224007607,0.751810610294342,-0.0014702603220939634,-0.005524313077330589,-0.047040842473506934,0
645,1549908755465048,0.03849384933710098,0.06173073127865791,0.7502307891845703,-0.004660604521632194,-0.001798626035451889,-0.04276254400610924,0
646,1549908755515048,0.04021745547652245,0.041153818368911736,0.7509329319000244,-0.0030627325177192692,-0.0007340330630540848,-0.044868551194667816,0
647,1549908755565048,0.056878969073295586,0.05585161224007607,0.7525127530097961,0.004384648054838181,0.0019255671650171282,-0.06239705160260201,0
648,1549908755615048,0.059177111834287636,0.0970054343342781,0.7519861459732056,0.008637227118015291,0.003520144149661064,-0.05385630950331688,0
649,1549908755665048,0.053431760519742966,0.08818675577640532,0.7525127530097961,0.009696601890027523,0.006709462963044643,-0.030428137630224224,0
650,1549908755715048,0.04194105789065361,0.06907962262630463,0.7497041821479797,0.009691753424704077,0.002983182668685913,-0.027753688395023342,0
651,1549908755765048,0.043090127408504486,0.08671697974205017,0.7523372173309326,0.003304748795926571,0.007768310606479646,-0.04156782478094101,0
652,1549908755815048,0.04653733968734741,0.06907962262630463,0.7511084675788879,-0.011056758463382721,0.0024459604173898697,-0.024527950212359432,0
653,1549908755865048,0.04768640920519829,0.04556315764784813,0.7509329319000244,-0.01371046341955662,-0.00766034610569477,-0.0207927618175745,0
654,1549908755915048,0.04826094582676888,0.06467028707265854,0.7537414431571959,-0.007321448996663094,0.0040441080927848825,-0.026632677763700485,0
655,1549908755965048,0.03389756754040718,0.0778983011841774,0.7504063248634338,-0.0009356327354907991,0.002446545287966728,-0.028746744617819783,0
656,1549908756015048,0.02240686677396297,0.07642852514982224,0.7481244206428528,0.0011922232806682589,-0.0012776032090187073,-0.03192345052957535,0
657,1549908756065048,0.02413047291338444,0.052912052720785134,0.7542680501937866,0.002787165343761444,0.00457334890961647,-0.0281845610588789,0
658,1549908756115048,0.035046637058258064,0.06760984659194946,0.7544435858726501,0.0017220787703990936,0.002975521609187126,-0.02604308538138866,0
659,1549908756165048,0.03619570657610893,0.07495874166488647,0.7504063248634338,0.008635222911834717,-0.0012807380408048632,-0.028689295053482056,0
660,1549908756215048,0.030450357124209407,0.09406587481498717,0.7482998967170715,0.0006532091647386551,-0.0018119439482688906,-0.03452526405453682,0
661,1549908756265048,0.020108727738261226,0.0778983011841774,0.7532148957252502,-0.010515894740819931,0.001911889761686325,-0.02014814503490925,0
662,1549908756315048,0.017236052080988884,0.047032937407493584,0.7539169788360596,-0.005192173644900322,0.0051020123064517975,-0.015883298590779305,0
663,1549908756365048,0.012639771215617657,0.11464278399944305,0.7495286464691162,0.005979198962450028,0.004035769030451775,-0.028639672324061394,0
664,1549908756415048,0.00919256079941988,0.17196416854858398,0.7481244206428528,0.01820867881178856,0.00988406129181385,-0.021711349487304688,0
665,1549908756465048,0.02298140153288841,0.1881317496299744,0.7551457285881042,0.03309127688407898,0.028493745252490044,0.0075510647147893906,0
666,1549908756515048,0.02585407719016075,0.15726637840270996,0.7530393600463867,0.030947346240282062,0.008801178075373173,0.046903930604457855,0
667,1549908756565048,0.02240686677396297,0.14550815522670746,0.7495286464691162,0.02774079330265522,-0.013008927926421164,0.06443141400814056,0
668,1549908756615048,0.027003146708011627,0.1749037355184555,0.7533903717994691,0.012303374707698822,0.0024211239069700237,0.07556797564029694,0
669,1549908756665048,0.02757768332958221,0.14109881222248075,0.7525127530097961,0.008042450994253159,-0.00023931823670864103,0.0904218927025795,0
670,1549908756715048,0.010916166007518768,0.12199167907238008,0.7500552535057068,0.009633970446884632,-0.0023665837943553925,0.08612190186977386,0
671,1549908756765048,-0.01787855662405491,0.1366894692182541,0.7530393600463867,0.012820232659578323,0.01199445500969887,0.08554700016975403,0
672,1549908756815048,0.0189596563577652,0.15726637840270996,0.7537414431571959,0.005899816751480103,0.008797378279268742,0.09667300432920456,0
673,1549908756865048,0.00976709555834532,0.1205219030380249,0.7505818605422974,0.009619791992008686,0.001347128301858902,0.11098452657461166,0
674,1549908756915048,0.01953419111669064,0.1513872593641281,0.7532148957252502,0.00855128839612007,0.009324152022600174,0.10933349281549454,0
675,1549908756965048,0.0189596563577652,0.12640102207660675,0.7523372173309326,0.009610706008970736,0.0040010251104831696,0.1135335937142372,0
676,1549908757015048,0.012639771215617657,0.15432682633399966,0.7528638243675232,0.006414821371436119,0.003999024629592896,0.10869020968675612,0
677,1549908757065048,0.003447210416197777,0.09994499385356903,0.7512840032577515,0.010666385293006895,-0.003980671986937523,0.12459126114845274,0
678,1549908757115048,0.00804349035024643,0.10288454592227936,0.7532148957252502,0.014383977279067041,-0.0013194512575864794,0.10644618421792984,0
679,1549908757165048,0.001149070099927485,0.09406587481498717,0.7504063248634338,0.008526474237442017,-0.0023824833333492283,0.1058611124753952,0
680,1549908757215048,0.010916166007518768,0.08671697974205017,0.7502307891845703,0.002671899273991585,-0.0018494464457035067,0.10421264171600343,0
681,1549908757265048,0.013214305974543095,0.12346146255731585,0.7530393600463867,-0.0021160561591386795,0.0008107107132673264,0.099373921751976,0
682,1549908757315048,-0.0038311192765831947,0.11170322448015213,0.7507573962211609,-0.00636976957321167,-0.00025338679552078247,0.10357899963855743,0
683,1549908757365048,0.00459628039970994,0.10435432940721512,0.7521616816520691,-0.0047710463404655465,-0.0034443400800228123,0.1035272181034088,0
684,1549908757415048,0.005745350383222103,0.1014147698879242,0.7512840032577515,0.0016134977340698242,-0.012484006583690643,0.1034754514694214,0
685,1549908757465048,-0.01660151779651642,0.10729388892650604,0.7526882886886597,0.00214453786611557,-0.009286686778068542,0.09597786515951157,0
686,1549908757515048,0.002872675191611052,0.05879117175936699,0.7512840032577515,0.007993776351213455,-0.004495425149798393,0.09061141312122344,0
687,1549908757565048,0.014363376423716543,0.10582410544157027,0.7521616816520691,0.01064901240170002,0.001888981088995933,0.07726994156837462,0
688,1549908757615048,0.02355593629181385,0.16020594537258148,0.7523372173309326,0.010111840441823006,0.008270194754004478,0.08095423877239227,0
689,1549908757665048,0.031024893745779988,0.16167572140693665,0.7500552535057068,0.009043091908097269,0.010925292037427424,0.08623222261667253,0
690,1549908757715048,0.02068326249718666,0.026456026360392567,0.7500552535057068,-0.006384978070855141,0.025811530649662014,0.10852666199207306,0
691,1549908757765048,0.03447210416197777,0.049972496926784515,0.7553212642669678,-0.021805334836244583,0.019948313012719158,0.07443422079086304,0
692,1549908757815048,0.015512446872889997,0.10582410544157027,0.7540925145149231,-0.005839036777615547,0.0007918644696474075,0.04993206262588501,0
693,1549908757865048,0.029301287606358525,0.09994499385356903,0.7507573962211609,-0.003708731383085251,-0.01622761785984039,0.05043894797563553,0
694,1549908757915048,0.04941001534461975,0.11758234351873398,0.7505818605422974,-0.003175029531121254,-0.0061144232749938965,0.05732773244380951,0
695,1549908757965048,0.040791988372802734,0.12346146255731585,0.7525127530097961,-0.006896369159221649,0.00984402932226658,0.0471939854323864,0
696,1549908758015048,0.02240686677396297,0.08230763673782349,0.7516350746154785,0.0016166232526302338,0.0013295635581016538,0.047170385718345635,0
697,1549908758065048,0.005745350383222103,0.047032937407493584,0.7493531107902527,-0.012744039297103882,-0.0071806441992521295,0.033850640058517456,0
698,1549908758115048,0.01953419111669064,0.08524719625711441,0.7563744783401489,-0.010610280558466913,0.001332489773631096,0.013623546808958055,0
699,1549908758165048,0.014937911182641985,0.07936808466911316,0.7491775751113892,-0.0031591244041919713,-0.005582181736826897,0.015744121745228767,0
700,1549908758215048,0.03619570657610893,0.07201918214559555,0.7505818605422974,0.0005653798580169678,-0.005047542974352837,0.006694859825074673,0
701,1549908758265048,0.043090127408504486,0.13081035017967224,0.7544435858726501,-0.006348907947540283,-0.008236097171902657,-0.0012861862778663635,0
702,1549908758315048,0.020108727738261226,0.11611256003379823,0.751810610294342,-0.010068658739328384,-0.013018598780035973,0.006692155264317989,0
703,1549908758365048,0.006894420832395554,0.07642852514982224,0.7495286464691162,-0.006872545927762985,-0.027371946722269055,0.010943581350147724,0
704,1549908758415048,0.014363376423716543,0.1014147698879242,0.7516350746154785,0.0021722819656133647,-0.011934710666537285,0.00668333750218153,0
705,1549908758465048,0.02355593629181385,0.09994499385356903,0.7516350746154785,-0.0047428086400032035,-0.0018236618489027023,0.011466613039374352,0
706,1549908758515048,0.02815221808850765,0.06026095151901245,0.7516350746154785,0.0021735671907663345,-0.003950133919715881,0.008801647461950779,0
707,1549908758565048,0.030450357124209407,0.124931238591671,0.7498797178268433,0.006959099322557449,-0.011925855651497841,-0.0071581490337848655,0
708,1549908758615048,0.03619570657610893,0.08671697974205017,0.7532148957252502,-0.008999776095151901,0.00031257607042789465,0.0050778985023498535,0
709,1549908758665048,0.02068326249718666,0.035274703055620193,0.7521616816520691,-0.004208657890558243,0.0008442644029855727,0.016244135797023773,0
710,1549908758715048,0.015512446872889997,0.124931238591671,0.7505818605422974,-0.003142859786748886,-0.0018153898417949679,-0.0039741527289152145,0
711,1549908758765048,0.0189596563577652,0.11317300796508788,0.7533903717994691,-0.00580052100121975,-0.002346327528357506,0.00879214983433485,0
712,1549908758815048,0.02413047291338444,0.09553565084934236,0.7521616816520691,0.005903001874685288,-0.0050043873488903046,0.01304252538830042,0
713,1549908758865048,0.032748498022556305,0.1322801411151886,0.7511084675788879,0.01015482284128666,-0.0018108077347278593,0.012504158541560171,0
714,1549908758915048,0.03677024319767952,0.11905211955308916,0.751810610294342,0.006426820531487465,-0.00021436065435409543,0.02473037503659725,0
715,1549908758965048,0.03906838223338127,0.11317300796508788,0.7507573962211609,0.01014653220772743,-0.005532719194889069,0.022058777511119843,0
716,1549908759015048,0.033323034644126885,0.11464278399944305,0.7532148957252502,0.004291148856282234,-0.004998106509447098,0.030025444924831387,0
717,1549908759065048,0.017236052080988884,0.052912052720785134,0.7488265037536621,0.006948236376047134,-0.0034000687301158905,0.03798813372850418,0
718,1549908759115048,0.01838512159883976,0.11464278399944305,0.7511084675788879,-0.00741509348154068,0.0051111746579408646,0.03158698230981827,0
719,1549908759165048,0.03217396140098572,0.1014147698879242,0.7519861459732056,-0.005284002050757408,0.004044927656650543,0.04273996502161026,0
720,1549908759215048,0.030450357124209407,0.09994499385356903,0.7511084675788879,-0.000494740903377533,-0.0018074084073305128,0.03420904651284218,0
721,1549908759265048,0.04194105789065361,0.12346146255731585,0.7540925145149231,-0.01219511590898037,0.009894119575619698,0.03525563329458237,0
722,1549908759315048,0.02355593629181385,0.06026095151901245,0.7505818605422974,-0.010593479499220848,-0.004470681771636009,0.04800232499837875,0
723,1549908759365048,0.01838512159883976,0.09406587481498717,0.7525127530097961,4.874728620052338e-05,0.001913711428642273,0.03840508684515953,0
724,1549908759415048,0.0017236052080988884,0.05585161224007607,0.7490020394325256,0.005367188714444636,-0.010319715365767479,0.037854038178920746,0
725,1549908759465048,0.014363376423716543,0.1087636649608612,0.7535659074783325,0.0011097341775894165,-0.0002094712108373642,0.03038925863802433,0
726,1549908759515048,0.02413047291338444,0.09553565084934236,0.7484754323959351,0.007491336204111577,-0.004464138299226761,0.03516068309545517,0
727,1549908759565048,0.0425155945122242,0.10582410544157027,0.7539169788360596,0.0074875904247164735,0.0003247130662202835,0.03673864156007767,0
728,1549908759615048,0.03159942850470543,0.10729388892650604,0.7488265037536621,0.007483846507966518,-0.006057608872652054,0.033529192209243774,0
729,1549908759665048,0.02815221808850765,0.09406587481498717,0.7537414431571959,0.010139336809515951,-0.0017998088151216507,0.029257657006382942,0
730,1549908759715048,0.02413047291338444,0.09553565084934236,0.7521616816520691,0.005879495292901993,-0.00871291197836399,0.032965950667858124,0
731,1549908759765048,0.02987582236528397,0.11170322448015213,0.7481244206428528,2.6244670152664185e-05,-0.010304097086191177,0.03879978135228157,0
732,1549908759815048,0.05113362148404122,0.11023344844579697,0.7537414431571959,0.003217310644686222,0.005656450986862183,0.045162539929151535,0
733,1549908759865048,0.03619570657610893,0.08524719625711441,0.7512840032577515,0.011193400248885156,0.00565362349152565,0.03397118300199509,0
734,1549908759915048,0.03906838223338127,0.09259609133005142,0.7525127530097961,-0.0010446663945913317,0.007778182625770569,0.040336355566978455,0
735,1549908759965048,0.02815221808850765,0.11758234351873398,0.7519861459732056,0.0021469350904226303,-0.005521869286894797,0.038720645010471344,0
736,1549908760015048,0.01838512159883976,0.11905211955308916,0.7479488849639893,0.00693248026072979,-0.009242033585906029,0.03072359040379524,0
737,1549908760065048,0.039642918854951865,0.09847521036863327,0.7523372173309326,0.002142395824193955,-0.003387100994586945,0.044004391878843314,0
738,1549908760115048,0.029301287606358525,0.13815924525260925,0.7477733492851257,0.005332403816282749,-0.001789867877960205,0.0360046923160553,0
739,1549908760165048,0.02240686677396297,0.14697793126106262,0.7537414431571959,0.003734197467565537,-0.00019343197345733645,0.03226376324892044,0
740,1549908760215048,0.01206523645669222,0.08377742022275925,0.7512840032577515,0.0021367911249399185,-0.006043648347258568,0.044480100274086,0
741,1549908760265048,0.013788841664791107,0.08671697974205017,0.7484754323959351,0.0058586485683918,-0.0071043185889720925,0.0370120108127594,0
742,1549908760315048,0.017236052080988884,0.10729388892650604,0.7540925145149231,-0.0010582860559225082,0.00725908763706684,0.041248276829719537,0
743,1549908760365048,0.03619570657610893,0.10582410544157027,0.7528638243675232,0.0016014762222766874,0.0035325326025485992,0.0428231917321682,0
744,1549908760415048,0.05860257521271705,0.17196416854858398,0.7528638243675232,0.009046526625752449,0.00193522684276104,0.032696697860956185,0
745,1549908760465048,0.0752640888094902,0.13521969318389893,0.751459538936615,0.0053190765902400025,-0.008702671155333519,0.04225358739495277,0
746,1549908760515048,0.09192560613155364,0.1675548404455185,0.7440871000289917,0.01595334708690643,-0.020930789411067963,0.02840445004403591,0
747,1549908760565048,0.0850311890244484,0.18960152566432956,0.7523372173309326,0.0436013862490654,0.003544613718986511,0.0438137948513031,0
748,1549908760615048,0.059177111834287636,0.1749037355184555,0.7505818605422974,0.0137961832806468,-0.01188070513308048,0.07517082989215851,0
749,1549908760665048,0.053431760519742966,0.2292855679988861,0.7537414431571959,0.010598206892609595,-0.01932061836123466,0.08470647782087326,0
750,1549908760715048,0.001149070099927485,0.4306453168392181,0.7500552535057068,0.005806289613246918,0.027491535991430286,0.10593798756599426,0
751,1549908760765048,0.008618026040494442,0.2924860715866089,0.7498797178268433,0.01005815900862217,0.011522393673658373,0.17608876526355746,0
752,1549908760815048,0.030450357124209407,0.15285705029964447,0.7512840032577515,0.015371596440672874,-0.0001839902251958847,0.2009975016117096,0
753,1549908760865048,0.01838512159883976,0.15285705029964447,0.7535659074783325,0.014832064509391785,0.014707803726196287,0.2051517814397812,0
754,1549908760915048,0.003447210416197777,0.18225263059139246,0.7523372173309326,0.008974337950348854,0.007254598662257194,0.21621796488761905,0
755,1549908760965048,0.015512446872889997,0.19548064470291135,0.7535659074783325,-0.011245939880609512,0.0014013610780239105,0.21781431138515472,0
756,1549908761015048,0.01953419111669064,0.13521969318389893,0.7472467422485352,0.006845887750387192,-0.021479478105902672,0.22207121551036835,0
757,1549908761065048,0.02815221808850765,0.16461527347564694,0.7512840032577515,0.026520784944295883,0.0035280454903841023,0.20653662085533145,0
758,1549908761115048,0.017236052080988884,0.17049439251422882,0.7516350746154785,0.02065721154212952,0.010972131974995136,0.19047796726226807,0
759,1549908761165048,0.01034163124859333,0.16902461647987366,0.7526882886886597,-0.0011588241904973984,0.014157725498080254,0.21325212717056274,0
760,1549908761215048,0.01838512159883976,0.2101784348487854,0.7526882886886597,0.0009696278721094133,0.020010963082313538,0.2201695740222931,0
761,1549908761265048,0.02642861194908619,0.2101784348487854,0.7504063248634338,0.0030980771407485013,0.006176037713885307,0.2297476232051849,0
762,1549908761315048,0.01206523645669222,0.1366894692182541,0.7535659074783325,0.025446804240345955,-0.0002093128859996796,0.2377293109893799,0
763,1549908761365048,0.00804349035024643,0.20870865881443024,0.7551457285881042,0.016933003440499306,0.01096505019813776,0.2238943576812744,0
764,1549908761415048,-0.03958823159337044,0.124931238591671,0.7488265037536621,0.009483427740633488,-0.006062552332878114,0.232940286397934,0
765,1549908761465048,-0.01787855662405491,0.1513872593641281,0.7475978136062622,0.0015017390251159668,0.004579700529575348,0.22921550273895264,0
766,1549908761515048,0.020108727738261226,0.15873616933822632,0.7569010853767395,-0.008076285943388939,0.011497162282466887,0.22495859861373899,0
767,1549908761565048,0.00804349035024643,0.11170322448015213,0.7502307891845703,0.011074226349592207,0.005109256133437157,0.2131454944610596,0
768,1549908761615048,0.043090127408504486,0.26309049129486084,0.7519861459732056,-0.0027593206614255905,0.013616245239973068,0.21569815278053284,0
769,1549908761665048,0.028726752847433087,0.16020594537258148,0.7497041821479797,0.01373616885393858,-0.0023471303284168248,0.23325787484645846,0
770,1549908761715048,0.016661517322063446,0.11464278399944305,0.7563744783401489,-0.003823544830083847,0.023726385086774826,0.2460285723209381,0
771,1549908761765048,0.020108727738261226,-0.17339664697647095,0.7493531107902527,-0.01978692039847374,-0.011393042281270029,0.2407074421644211,0
772,1549908761815048,0.04653733968734741,-0.08485367894172667,0.7525127530097961,-0.04796488955616951,-0.01564212143421173,0.1836795061826706,0
773,1549908761865048,0.013214305974543095,0.005879117175936699,0.7509329319000244,-0.011775346472859384,-0.0012744441628456116,0.13572148978710175,0
774,1549908761915048,-0.0025540795177221303,0.05732139199972153,0.7556723356246948,-0.0021962225437164307,0.009363122284412384,0.08885113894939423,0
775,1549908761965048,-0.0025540795177221303,0.02204668894410133,0.7460179924964905,-0.01230020821094513,-0.022020502015948296,0.0739150121808052,0
776,1549908762015048,0.015512446872889997,-0.0055339355021715156,0.7551457285881042,-0.013357752934098244,-0.015095489099621771,0.06749589741230011,0
777,1549908762065048,-0.01915559731423855,0.05144227296113968,0.7493531107902527,0.004731707274913789,-0.011896859854459764,0.028105508536100388,0
778,1549908762115048,0.03619570657610893,0.11758234351873398,0.7569010853767395,-0.0011209715157747267,0.002468941733241081,0.005753904581069946,0
779,1549908762165048,0.04136652499437332,0.10582410544157027,0.7509329319000244,-0.005375182256102562,-0.002318909391760826,0.01319687906652689,0
780,1549908762215048,0.02413047291338444,0.08524719625711441,0.7482998967170715,0.002073356881737709,-0.006572522222995758,0.0025533512234687805,0
781,1549908762265048,0.03159942850470543,0.1087636649608612,0.7549701929092407,-0.002182452008128166,0.0056632328778505325,0.0036157667636871342,0
782,1549908762315048,0.025279542431235317,0.0661400705575943,0.7516350746154785,-0.00271320715546608,0.009383326396346092,0.008400578051805494,0
783,1549908762365048,0.007468955591320991,0.11905211955308916,0.7465445995330809,-0.0021800044924020767,-0.004449373111128807,-0.011281942948698996,0
784,1549908762415048,0.03389756754040718,0.12346146255731585,0.7600606679916382,-0.011220306158065796,0.006721627898514271,0.003083553165197373,0
785,1549908762465048,-0.052358631044626236,0.124931238591671,0.7435604929924011,-0.018660547211766243,-0.016151130199432373,0.015314481221139431,0
786,1549908762515048,0.005170815624296665,0.11023344844579697,0.7551457285881042,-0.01439644582569599,0.016299579292535782,0.006797279231250286,0
787,1549908762565048,0.0017236052080988884,0.052912052720785134,0.7576032280921936,-0.008538935333490372,0.008313732221722603,0.015303424559533596,0
788,1549908762615048,0.010916166007518768,0.05879117175936699,0.7525127530097961,0.00848442129790783,-0.0055184345692396155,0.012636540457606316,0
789,1549908762665048,0.03389756754040718,0.14256858825683594,0.7535659074783325,0.01060756482183933,-0.004983827471733093,-0.01555764302611351,0
790,1549908762715048,0.033323034644126885,0.11023344844579697,0.7474222779273987,-0.010671598836779594,-0.01668195798993111,0.016892772167921066,0
791,1549908762765048,0.053431760519742966,0.11905211955308916,0.7479488849639893,-0.0016248729079961775,-0.004972994327545166,-0.002262147143483162,0
792,1549908762815048,0.03447210416197777,0.08671697974205017,0.7495286464691162,0.001035172492265701,0.00034795887768268585,0.005716681480407715,0
793,1549908762865048,0.012639771215617657,0.06907962262630463,0.7530393600463867,-0.0032201167196035385,0.0024751685559749608,0.0019908975809812546,0
794,1549908762915048,0.011490700766444206,0.09406587481498717,0.7497041821479797,0.010609501972794531,0.002473931759595871,-0.010242566466331482,0
795,1549908762965048,-0.0012770397588610651,0.09112631529569626,0.7530393600463867,0.010604197159409523,0.007259313017129898,-0.009705599397420885,0
796,1549908763015048,0.00919256079941988,0.05585161224007607,0.7539169788360596,0.007407815195620059,0.0003416799008846283,0.005190955474972725,0
797,1549908763065048,0.01206523645669222,0.1631454974412918,0.751459538936615,0.013786268420517445,-0.004976956173777579,-0.005980415269732475,0
798,1549908763115048,0.021832332015037537,0.09994499385356903,0.7546191215515137,0.014311220496892927,0.003535076975822449,0.0062550436705350885,0
799,1549908763165048,0.00229814019985497,0.08230763673782349,0.7458424568176271,0.02653653547167778,-0.006039928644895554,0.001997144892811775,0
800,1549908763215048,0.02585407719016075,0.11758234351873398,0.7584808468818665,0.0158863365650177,0.015236952342092991,-0.018214019015431404,0
801,1549908763265048,0.01953419111669064,0.06467028707265854,0.7465445995330809,-0.010713933035731316,-0.011894835159182549,0.013705875724554062,0
802,1549908763315048,0.03389756754040718,0.09259609133005142,0.7521616816520691,0.0009920485317707062,0.0003435816615819931,0.012635331600904465,0
803,1549908763365048,0.015512446872889997,0.13374991714954376,0.7528638243675232,0.012692173942923546,-0.014016447588801384,-0.0033263824880123143,0
804,1549908763415048,0.017236052080988884,0.1631454974412918,0.7528638243675232,0.0020488984882831573,-0.0017769709229469301,-0.0006654858589172362,0
805,1549908763465048,0.005745350383222103,0.18960152566432956,0.7493531107902527,-0.0011432059109210966,-0.009753778576850893,0.0035896189510822296,0
806,1549908763515048,0.021832332015037537,0.10288454592227936,0.7565500140190125,-0.006461098790168761,0.004079107195138931,0.006778902374207974,0
807,1549908763565048,0.0005745350499637425,0.09553565084934236,0.7519861459732056,-0.0128400269895792,0.0008859876543283463,0.006243666633963585,0
808,1549908763615048,0.01953419111669064,0.12346146255731585,0.7497041821479797,-0.003792217001318932,-0.0012418404221534731,0.013686394318938257,0
809,1549908763665048,0.02355593629181385,0.07348896563053131,0.7526882886886597,0.01322876662015915,0.0008861664682626724,0.007297392934560777,0
810,1549908763715048,0.04021745547652245,0.11317300796508788,0.7490020394325256,0.0020533762872219086,-0.012942284345626831,0.001975279301404953,0
811,1549908763765048,0.030450357124209407,0.09406587481498717,0.7533903717994691,-0.003266114741563797,-0.015063200145959852,-0.0022804811596870427,0
812,1549908763815048,0.016661517322063446,0.08083786070346832,0.7488265037536621,-0.009114794433116913,-0.0028231982141733174,0.0019754301756620407,0
813,1549908763865048,0.03217396140098572,0.13521969318389893,0.7569010853767395,-0.010705776512622832,0.005687756463885307,0.0025062896311283107,0
814,1549908763915048,-0.0051081590354442605,0.1396290361881256,0.7504063248634338,-0.008573038503527641,-0.011866020038723946,0.0025050360709428787,0
815,1549908763965048,0.017236052080988884,0.09994499385356903,0.7497041821479797,0.002068178728222847,0.00037238188087940216,-0.004410222172737122,0
816,1549908764015048,0.02585407719016075,0.13081035017967224,0.7542680501937866,-0.0027194749563932423,0.003563273698091507,-0.007599096745252609,0
817,1549908764065048,0.00976709555834532,0.017637351527810097,0.7521616816520691,0.0047277361154556274,-0.005479898303747177,0.0120830237865448,0
